timestamp [datetime],gyro x [deg/s],gyro y [deg/s],gyro z [deg/s],acceleration x [g],acceleration y [g],acceleration z [g],roll [deg],pitch [deg],yaw [deg]
2023-07-25 18:18:56.100,47.9573195,48.3231715,6.676829,-0.0961915,-0.8688659999999999,0.131195,7.432722054772,89.71900865663204,
2023-07-25 18:18:56.120,44.329269499999995,38.41463475,8.643293,-0.09803775,-0.8694915,0.149429,8.183901603003424,89.11709905940693,
2023-07-25 18:18:56.140,40.3658535,25.91463475,10.853658750000001,-0.0964965,-0.870148,0.15502925,8.973533485460477,88.2465749003989,
2023-07-25 18:18:56.160,36.55487825,15.2286585,14.0091465,-0.092575,-0.8632355,0.15237425,9.5322132790525,87.30335312026111,
2023-07-25 18:18:56.180,32.45426925,6.9512195,17.10365925,-0.088852,-0.866333,0.14112875,9.904510933942454,86.2880278636722,
2023-07-25 18:18:56.200,28.582317500000002,-0.015244000000000035,18.993903,-0.09939575,-0.87217725,0.1512605,10.146927060567325,85.1978091194056,
2023-07-25 18:18:56.220,24.618903,-7.95731725,19.80182975,-0.11584475,-0.8696745,0.17329425,10.27862500131485,84.0434917874413,
2023-07-25 18:18:56.240,18.64329325,-20.35061075,22.149390750000002,-0.14233375,-0.8682402499999999,0.22499075000000002,10.257034888082975,82.79624560694462,
2023-07-25 18:18:56.260,11.1219512,-41.963415600000005,24.0853664,-0.17692860000000002,-0.8640748,0.2891112,9.922174502980782,81.26241604011629,
2023-07-25 18:18:56.280,1.981707,-72.6981725,25.091464000000002,-0.22557075000000001,-0.890045,0.347,9.131315339572572,79.56709716629905,
2023-07-25 18:18:56.300,-3.4298780000000004,-104.085367,23.9024395,-0.2545775,-0.8748015,0.334793,7.90053867872596,77.9408319553547,
2023-07-25 18:18:56.320,-6.93597575,-131.9207385,24.954269,-0.26934800000000003,-0.849136,0.28643799999999997,6.203343663947168,76.23709665455165,
2023-07-25 18:18:56.340,-8.216463749999999,-152.6981735,28.1097565,-0.263428,-0.837372,0.22708125,4.140041899615663,74.47067374347115,
2023-07-25 18:18:56.360,-8.8719515,-166.25000375000002,31.29573225,-0.2464295,-0.866684,0.17709350000000001,1.8253563187220228,72.62171441564392,
2023-07-25 18:18:56.380,-8.99390225,-173.90244275,31.661586,-0.22093200000000002,-0.9040985,0.1450805,-0.6459335578100245,70.67075726498433,
2023-07-25 18:18:56.400,-8.4451225,-176.66158675,27.759147249999998,-0.1875305,-0.9424742500000001,0.114914,-3.19423947227115,68.61984239558372,
2023-07-25 18:18:56.420,-8.475610249999999,-175.213417,20.1371955,-0.15708925,-0.9579315,0.08607475,-5.758777557239712,66.47699860965805,
2023-07-25 18:18:56.440,-9.3445125,-170.06097775,12.22561,-0.1314545,-0.93255625,0.05082725,-8.26355753792547,64.2434528199436,
2023-07-25 18:18:56.460,-10.1219515,-161.12805175,7.362805,-0.11119075,-0.89843775,0.02066025,-10.617842630993282,61.91832308690468,
2023-07-25 18:18:56.480,-11.021342,-149.085369,7.28658525,-0.0915375,-0.878952,-0.0027157500000000003,-12.723630164948625,59.4977021719328,
2023-07-25 18:18:56.500,-11.097561,-134.64939900000002,9.6036585,-0.06494125,-0.881561,-0.00614925,-14.507160258022125,56.995444850598446,
2023-07-25 18:18:56.520,-9.7713415,-119.1463435,11.0365855,-0.044052,-0.88909925,-0.011139,-15.940083478318225,54.46852769677717,
2023-07-25 18:18:56.540,-8.033537,-103.5670775,11.76829275,-0.02969375,-0.897888,0.00564575,-17.0096205701303,51.972371044289424,
2023-07-25 18:18:56.560,-6.265244,-89.29878049999999,10.990854,-0.026062000000000002,-0.906189,0.01448075,-17.737459786660324,49.553693604743145,
2023-07-25 18:18:56.580,-5.5182927500000005,-77.560978,9.207317250000001,-0.028122,-0.916107,0.04026775,-18.161795693715625,47.2330199875154,
2023-07-25 18:18:56.600,-5.0914635,-68.42987825,6.47865875,-0.02478025,-0.90986625,0.0538485,-18.356805570101425,44.998640343244205,
2023-07-25 18:18:56.620,-4.7713415,-60.38109875,4.161585499999999,-0.0223695,-0.904709,0.055664,-18.39365979633105,42.86104160085173,
2023-07-25 18:18:56.640,-5.4115855,-54.298781500000004,3.47560975,-0.03262325,-0.90345775,0.07652300000000001,-18.241905218067224,40.80071230502428,
2023-07-25 18:18:56.660,-6.097561,-51.539634750000005,3.55182925,-0.03758225,-0.89834575,0.10287450000000001,-17.919572768048,38.817401080097675,
2023-07-25 18:18:56.680,-5.9512196,-50.9878068,2.9268294,-0.0339722,-0.8932864,0.10246599999999999,-17.4401093208971,36.642106881922246,
2023-07-25 18:18:56.700,-6.67682925,-49.77134325,3.3384145,-0.025833250000000002,-0.89427175,0.0867615,-16.918861382353224,34.49312420268043,
2023-07-25 18:18:56.720,-6.737805,-48.841464,4.070122,-0.034073,-0.896332,0.10255449999999999,-16.3606052327242,32.6252115324313,
2023-07-25 18:18:56.740,-6.798780750000001,-51.310977,5.7012195000000006,-0.05384825,-0.9000395,0.129532,-15.637455186538725,30.846180191186626,
2023-07-25 18:18:56.760,-5.914634250000001,-56.310976249999996,4.96951225,-0.060089500000000004,-0.89778125,0.131668,-14.8580320536071,29.13093624340055,
2023-07-25 18:18:56.780,-5.1067075,-61.875001,6.5091465,-0.05911275,-0.892517,0.1408235,-14.04454708047645,27.462452187056627,
2023-07-25 18:18:56.800,-3.82621975,-68.4756105,8.5213415,-0.06561275,-0.89523325,0.1571505,-13.160140458643625,25.8575141794356,
2023-07-25 18:18:56.820,-2.4390245,-78.24695224999999,9.63414675,-0.08226,-0.8977204999999999,0.16853325,-12.192182376277575,24.3553244625983,
2023-07-25 18:18:56.840,-1.0060975,-87.62195224999999,8.93292725,-0.07305925,-0.89704925,0.14213575,-11.267428825063474,22.8657351487697,
2023-07-25 18:18:56.860,-1.49390225,-93.4146345,10.59451275,-0.066986,-0.89027425,0.1213685,-10.3914243040435,21.3204224773906,
2023-07-25 18:18:56.880,-1.25000025,-96.9512235,11.38719525,-0.06019575,-0.8910675,0.10617075000000001,-9.473627050012691,19.780837277696627,
2023-07-25 18:18:56.900,-0.35060975,-97.45427125,12.36280525,-0.047454750000000004,-0.8877105,0.08659375,-8.546976655488827,18.257591540252076,
2023-07-25 18:18:56.920,-0.53353675,-95.68598,13.780488250000001,-0.044982999999999995,-0.9028475,0.07704174999999999,-7.556316088243925,16.767146121788425,
2023-07-25 18:18:56.940,-0.91463425,-91.63109975,12.7896345,-0.03033475,-0.900879,0.06237775,-6.531434804974353,15.3160886016014,
2023-07-25 18:18:56.960,-1.783537,-84.7560995,12.073171,-0.016265750000000002,-0.90380875,0.04786675,-5.5186148108871675,13.878751190410526,
2023-07-25 18:18:56.980,-3.70426825,-77.28658675,10.19817075,-0.019806,-0.9131009999999999,0.05096425,-4.440617209114943,12.499272016198725,
2023-07-25 18:18:57.000,-5.015244,-69.80183025,7.530488,-0.01377875,-0.9161225,0.04173275,-3.3378312650597497,11.171342491930575,
2023-07-25 18:18:57.020,-5.731707500000001,-61.051830499999994,5.304878,-0.0009157500000000001,-0.914673,0.027832,-2.28779805038954,9.848501827686814,
2023-07-25 18:18:57.040,-5.8841465,-50.8384165,3.87195125,0.011566,-0.9124909999999999,0.022919000000000002,-1.300910350558071,8.53784800792632,
2023-07-25 18:18:57.060,-6.15853675,-40.685976749999995,2.5609755,0.021957499999999998,-0.9115752500000001,0.02349825,-0.3194619062537002,7.265106065746623,
2023-07-25 18:18:57.080,-6.00609775,-30.96036675,1.554878,0.02331575,-0.9148865,0.0291595,0.696856080535576,6.057711586865615,
2023-07-25 18:18:57.100,-5.6951222,-21.8658542,-0.902439,0.0161012,-0.9223511999999999,0.0399048,2.034148392289058,4.888847703479878,
2023-07-25 18:18:57.120,-5.457317,-15.274391,-3.597561,0.00788875,-0.918625,0.0594635,3.6474030867130476,4.143994214647292,
2023-07-25 18:18:57.140,-4.862805,-11.753049,-5.44207325,0.0040435,-0.91195675,0.07270825,5.189588968183868,4.207870367528733,
2023-07-25 18:18:57.160,-4.268292499999999,-9.28353675,-5.5487804999999994,0.01074225,-0.89865125,0.06861875,6.216391209502582,4.325238431358647,
2023-07-25 18:18:57.180,-4.16158525,-6.46341475,-4.64939025,0.0183715,-0.900421,0.06660475,5.778699361017155,4.289936407143102,
2023-07-25 18:18:57.200,-4.26829275,-3.94817075,-2.820122,0.020736749999999998,-0.89517225,0.0693665,5.647845072158445,4.358529009603117,
2023-07-25 18:18:57.220,-4.542683,-2.14939025,-1.905488,0.025299000000000002,-0.89863625,0.06956475000000001,5.39326271103542,4.390796956724578,
2023-07-25 18:18:57.240,-4.740853749999999,-0.68597575,-0.97561,0.0266265,-0.90145875,0.06546025,5.30526674118701,4.164275832681432,
2023-07-25 18:18:57.260,-4.832317,0.35060975,-0.12195099999999999,0.02967825,-0.89894075,0.06578075,5.045990308114107,4.129947969399497,
2023-07-25 18:18:57.280,-4.19207325,1.5091462500000001,0.65548775,0.03137225,-0.90403725,0.05963125,4.9882036586470795,3.764969768201015,
2023-07-25 18:18:57.300,-3.35365875,2.86585375,1.8292682500000002,0.026703,-0.90394575,0.0563965,5.335952696558913,3.5325414684681524,
2023-07-25 18:18:57.320,-2.62195125,3.81097575,2.97256075,0.022888,-0.9066927499999999,0.061675999999999995,5.63938532458841,3.9092695991478124,
2023-07-25 18:18:57.340,-1.8902442499999998,4.1158535,3.3231705,0.011398249999999999,-0.90953075,0.0678405,6.375131677290642,4.279732072001058,
2023-07-25 18:18:57.360,-1.0365855,3.3993902499999997,3.01829275,0.00758375,-0.90907275,0.06987,6.405206136088005,4.36804404049972,
2023-07-25 18:18:57.380,-0.59451225,2.95731675,3.094512,0.007171749999999999,-0.90711975,0.06662,6.5618949700852,4.249557129578033,
2023-07-25 18:18:57.400,-0.21341475,2.98780475,3.4603657500000002,0.00340275,-0.90289325,0.065521,6.781417254272755,4.1573271064946855,
2023-07-25 18:18:57.420,-0.2439025,2.68292675,3.9939025,-0.00547775,-0.9087525,0.07737725000000001,7.338280121085887,4.759664311850928,
2023-07-25 18:18:57.440,-0.06097575,1.67682925,3.55182925,-0.013275,-0.91185,0.0808715,7.938653755234995,5.11615386906535,
2023-07-25 18:18:57.460,0.06097575,0.4115855,3.04878025,-0.0145265,-0.906555,0.08105475000000001,7.970843527016058,5.137643475773338,
2023-07-25 18:18:57.480,0.152439,-0.3963415,2.2865855,-0.01222225,-0.9080965,0.08041375,7.833316569200065,5.0935607539637875,
2023-07-25 18:18:57.500,0.7560976,-0.8170732,1.8658538,-0.0275268,-0.9070432,0.0904418,8.49798031040727,5.558528403209034,
2023-07-25 18:18:57.520,1.78353675,-2.48475625,1.6006097499999998,-0.058303999999999995,-0.9157105,0.1242675,9.620188765165441,6.654394476633315,
2023-07-25 18:18:57.540,2.0731710000000003,-8.27743925,-1.570122,-0.08721925,-0.9351345,0.1521305,10.603326628263776,7.680424675945815,
2023-07-25 18:18:57.560,2.195122,-18.109756750000003,-6.85975625,-0.10369875,-0.9389190000000001,0.1748655,11.455557185239226,8.730645338294927,
2023-07-25 18:18:57.580,3.4603657500000002,-31.3871965,-11.8140245,-0.1158905,-0.939377,0.1930085,12.098114316037826,9.84941855331168,
2023-07-25 18:18:57.600,6.60061,-47.86585425,-16.7987815,-0.1194305,-0.94367975,0.20010375,12.716818209081925,10.98298321475095,
2023-07-25 18:18:57.620,12.65243925,-64.557928,-20.625000749999998,-0.103653,-0.9268495,0.1768035,13.02180916100865,11.095432058701974,
2023-07-25 18:18:57.640,20.44207375,-78.36890425,-19.5121955,-0.08403025,-0.9167784999999999,0.14366125,12.2098317783138,10.358143482424074,
2023-07-25 18:18:57.660,29.146341749999998,-89.49695425,-18.2164635,-0.058395749999999996,-0.92529325,0.10231024999999999,11.294287029181826,9.780168704306632,
2023-07-25 18:18:57.680,38.38414775,-95.56402575,-15.746951500000002,-0.019867,-0.92857375,0.052719,10.261094565232426,9.372363400756072,
2023-07-25 18:18:57.700,46.783537,-96.4481715,-11.768293,0.01828,-0.9367829999999999,0.02137725,9.193691430502513,9.12207767108473,
2023-07-25 18:18:57.720,52.530489,-94.11585625,-10.960366,0.0530395,-0.93785125,0.010269,8.083028188071784,8.990216148690322,
2023-07-25 18:18:57.740,54.314026,-87.24085425,-12.118903,0.09385675,-0.9304505000000001,-0.01237475,6.892488646504585,8.906045918609465,
2023-07-25 18:18:57.760,53.70426925,-75.16768475,-13.521341750000001,0.13227824999999999,-0.92245475,-0.009979249999999999,5.59989301143106,8.820438373731207,
2023-07-25 18:18:57.780,50.731708499999996,-60.3048795,-15.56402475,0.15127575000000001,-0.91249075,0.02565025,4.161701513270742,8.741562202734253,
2023-07-25 18:18:57.800,45.838415,-45.121952,-18.75000025,0.16273525,-0.897064,0.06254575,2.5398832388941277,8.676973707465454,
2023-07-25 18:18:57.820,39.6036595,-32.17987875,-22.3780495,0.16505425,-0.8738859999999999,0.11407500000000001,0.5668262207324085,8.829901479043592,
2023-07-25 18:18:57.840,33.47561,-23.079269,-24.80182925,0.16658,-0.8513795,0.1667935,-1.4930572184919215,9.812619919280575,
2023-07-25 18:18:57.860,28.9024395,-17.423780999999998,-24.81707375,0.17318725000000001,-0.8286745,0.199982,-2.9918671892455673,11.3869354217727,
2023-07-25 18:18:57.880,26.25000025,-14.237805,-21.73780525,0.18778975,-0.82080075,0.2153015,-4.28427568298072,12.99606791913735,
2023-07-25 18:18:57.900,24.66463475,-12.5914635,-18.24695125,0.189865,-0.8280335,0.22373975000000002,-5.32982940737432,14.606674646008475,
2023-07-25 18:18:57.920,25.8658544,-13.0853662,-16.5487806,0.1811766,-0.8550658,0.23686500000000002,-4.819493752892744,15.56860102854964,
2023-07-25 18:18:57.940,31.05182975,-13.506098,-17.7896345,0.20381175,-0.86999525,0.2222595,-5.333409825497975,15.118513430011026,
2023-07-25 18:18:57.960,35.076220500000005,-9.6189025,-17.22561025,0.23236099999999998,-0.8445285,0.208725,-6.8434549184928954,14.846393511840075,
2023-07-25 18:18:57.980,35.396342250000004,-3.62804875,-15.0914635,0.24533075,-0.82025125,0.23751825,-8.477805407154088,15.737884278541426,
2023-07-25 18:18:58.000,31.996951,1.5701217499999998,-13.04878075,0.24147025,-0.80590825,0.28355425,-8.970728052045912,17.657838086679924,
2023-07-25 18:18:58.020,26.7835375,5.167683,-11.78353675,0.236908,-0.78739925,0.32264725,-9.027714850797864,19.542646517415825,
2023-07-25 18:18:58.040,20.899390750000002,8.0487805,-9.74085375,0.2327575,-0.781601,0.345764,-8.93576224356148,21.3223887464734,
2023-07-25 18:18:58.060,14.298780749999999,10.10670775,-8.0792685,0.22467025000000002,-0.7763519999999999,0.35975650000000003,-8.584027953596452,22.94942644895395,
2023-07-25 18:18:58.080,8.7957315,11.112805250000001,-6.5396339999999995,0.20881650000000002,-0.7826077499999999,0.37867725,-7.876993565484023,24.3485745063806,
2023-07-25 18:18:58.100,5.8841465,9.00914675,-5.85365875,0.19601425,-0.79180925,0.38990775,-6.756369719453855,25.433299999741948,
2023-07-25 18:18:58.120,6.5853660000000005,6.9512195,-5.137195,0.19816575,-0.79934675,0.35968025,-5.93123411155369,25.165300122868675,
2023-07-25 18:18:58.140,9.95426825,7.042683,-3.0335365,0.1829985,-0.83184825,0.326706,-5.659327392053164,24.078762354840475,
2023-07-25 18:18:58.160,18.231707999999998,6.06707325,-6.60060975,0.16125475,-0.8859865,0.31233225,-4.984495997916213,23.187799332701776,
2023-07-25 18:18:58.180,27.4390245,4.75609775,-13.47561,0.155838,-0.9013672500000001,0.3020325,-4.47800817869212,22.477179186321024,
2023-07-25 18:18:58.200,32.057928,4.83231725,-17.05792775,0.15274025,-0.8485564999999999,0.31175225,-3.92900884438896,21.97210196288955,
2023-07-25 18:18:58.220,33.21646425,5.442073,-17.2865865,0.15823375,-0.8036805,0.34815975,-3.3620974650840325,23.00099108350695,
2023-07-25 18:18:58.240,31.60061075,5.74695175,-16.82926875,0.16369625,-0.777939,0.38241575,-3.6298728935814077,24.962685694575875,
2023-07-25 18:18:58.260,28.018293,6.02134175,-16.280488,0.18545525000000002,-0.765976,0.4049075,-4.385787255769283,26.82788844588365,
2023-07-25 18:18:58.280,23.018293,7.28658525,-14.832317,0.20547475,-0.7629545,0.41319249999999996,-5.80767819996276,28.272454111172976,
2023-07-25 18:18:58.300,16.9817075,9.329268500000001,-12.88109775,0.21701075,-0.75482175,0.420456,-7.12389840442727,29.1679284195555,
2023-07-25 18:18:58.320,9.6219516,9.8658538,-12.0487806,0.22464599999999998,-0.7514892,0.44459219999999994,-7.502244650168338,30.724272666711038,
2023-07-25 18:18:58.340,4.695122,9.329268,-11.112805250000001,0.2443085,-0.75029,0.44705225,-8.635014677650473,30.8677750259242,
2023-07-25 18:18:58.360,1.55487825,9.3292685,-9.07012225,0.25302125,-0.7555240000000001,0.44163525,-9.166795531808928,30.272562384602924,
2023-07-25 18:18:58.380,-1.67682925,7.83536625,-8.81097575,0.24523899999999998,-0.7542575,0.4455415,-8.653264216477695,30.5926196297586,
2023-07-25 18:18:58.400,-3.780488,5.945122,-9.22256125,0.25308225,-0.7416685000000001,0.4421385,-9.390970313449913,30.743914407668026,
2023-07-25 18:18:58.420,-3.88719525,5.3353660000000005,-7.28658575,0.263809,-0.7400815000000001,0.43008425,-9.943113576967917,30.057140823700827,
2023-07-25 18:18:58.440,-3.3841462499999997,5.21341475,-3.53658525,0.27081299999999997,-0.739151,0.43136625,-10.5134131963732,30.359473575900026,
2023-07-25 18:18:58.460,-3.445122,3.79573175,-1.4786584999999999,0.265152,-0.75506575,0.43920875000000004,-9.86767034092832,30.071918461147025,
2023-07-25 18:18:58.480,-4.28353675,2.621951,-1.417683,0.2616575,-0.75787325,0.427002,-9.62884398024039,29.506453778727074,
2023-07-25 18:18:58.500,-5.7621952499999995,3.0487805,-1.1737805,0.26094075,-0.75584425,0.4194945,-9.784945768763064,29.08001293516425,
2023-07-25 18:18:58.520,-7.2408535,3.810976,-0.18292675,0.2552335,-0.7519835,0.42309575,-9.509218319495474,29.30224393592755,
2023-07-25 18:18:58.540,-8.75000025,3.8567072500000004,0.945122,0.25292975,-0.7591552500000001,0.41967775,-9.272411180983887,28.9132215388285,
2023-07-25 18:18:58.560,-10.213415,4.03963425,2.27134125,0.2547455,-0.76626575,0.40606675,-9.358086675674786,27.930071785164575,
2023-07-25 18:18:58.580,-11.3414635,5.09146375,3.445122,0.255005,-0.77914425,0.3892515,-9.289299642431908,26.523518786577498,
2023-07-25 18:18:58.600,-11.99695175,7.34756125,4.801829,0.249649,-0.78128025,0.37135324999999997,-9.04393056163609,25.436818869293226,
2023-07-25 18:18:58.620,-12.591463749999999,8.27743925,5.9908535,0.22921750000000002,-0.7923585,0.391327,-7.82661292616767,25.996809532520675,
2023-07-25 18:18:58.640,-12.1646345,6.66158575,4.862805,0.20959475,-0.8032225,0.393875,-6.183348977928633,26.0318866910896,
2023-07-25 18:18:58.660,-11.29573175,4.070122,3.0182927499999996,0.20260625,-0.816452,0.37472525,-5.654339898902345,24.800656132376076,
2023-07-25 18:18:58.680,-9.603658750000001,2.94207325,2.39329275,0.20144675,-0.8113250000000001,0.34744275,-5.803344750804838,23.35096672837145,
2023-07-25 18:18:58.700,-6.8140245,3.00304875,2.804878,0.20555125000000002,-0.8188934999999999,0.33694475,-6.00880672413838,22.25599073201445,
2023-07-25 18:18:58.720,-3.42987825,4.00914625,2.5762195,0.207962,-0.821457,0.33151225,-6.255772879253428,21.985012761888427,
2023-07-25 18:18:58.740,-0.1463412,6.5853660000000005,1.8292684000000001,0.21218240000000002,-0.8155518,0.3307496,-6.589782761693466,22.114237700087777,
2023-07-25 18:18:58.760,1.8445122499999997,10.518293,1.29573175,0.22035225,-0.812027,0.32940675,-7.243582781405317,22.0670320059058,
2023-07-25 18:18:58.780,1.9359757499999999,14.64939025,1.49390225,0.21920775,-0.8011477499999999,0.33760049999999997,-7.2000467310012,22.730094124022425,
2023-07-25 18:18:58.800,0.3963415,17.16463475,1.554878,0.21211275,-0.79351825,0.35612475,-6.69366703290408,24.019581941442674,
2023-07-25 18:18:58.820,-1.0670735,19.10061025,1.43292675,0.21438625,-0.79418925,0.3607635,-6.848572044937498,24.439506544430152,
2023-07-25 18:18:58.840,-1.905488,22.31707425,1.43292675,0.22148125,-0.7930145,0.353088,-7.208383034860162,24.030160053090075,
2023-07-25 18:18:58.860,-2.987805,27.057927499999998,2.22560975,0.22747775,-0.799408,0.3551485,-7.526394341704825,23.920815756184876,
2023-07-25 18:18:58.880,-5.0762195,29.435977,2.13414625,0.20619175,-0.79934675,0.3929135,-6.653897233718513,25.001347973887125,
2023-07-25 18:18:58.900,-7.073171,26.829269,0.39634149999999996,0.183365,-0.79096975,0.42184475,-5.693538910626865,26.137784673304775,
2023-07-25 18:18:58.920,-7.942073499999999,23.262195249999998,0.0762195,0.1838685,-0.78489675,0.4138795,-4.870980252549863,27.145485860914498,
2023-07-25 18:18:58.940,-8.7347565,22.423780999999998,1.52439025,0.19618225,-0.78492725,0.376419,-4.96569195869804,26.492652177692076,
2023-07-25 18:18:58.960,-9.740854,28.01829375,3.26219525,0.22366325,-0.77568075,0.32341,-5.55796984153286,25.309381428082723,
2023-07-25 18:18:58.980,-11.8902445,41.966464,6.21951225,0.2503355,-0.772629,0.2704315,-6.074851225949132,24.15521983357825,
2023-07-25 18:18:59.000,-17.05792725,61.524392,8.216463749999999,0.254959,-0.78533925,0.252884,-6.3562658178449905,22.96651499296935,
2023-07-25 18:18:59.020,-23.20122,81.463417,6.66158575,0.234314,-0.7992705,0.25421150000000003,-6.369823934350235,21.703506533528223,
2023-07-25 18:18:59.040,-28.5518295,99.05488,3.3993905,0.20118725,-0.81738275,0.26641825,-5.91721835378032,20.322372522651175,
2023-07-25 18:18:59.060,-33.4908545,114.22256275,0.7317075,0.16647325,-0.82867425,0.272995,-4.56007603792444,19.02186265284605,
2023-07-25 18:18:59.080,-36.875001,125.04573425000001,-1.41768275,0.12281825,-0.837921,0.29777525,-2.29869506000037,18.79355564456425,
2023-07-25 18:18:59.100,-39.314026,131.021347,-2.11890225,0.07490525,-0.83940125,0.33432,-0.2840596119382895,19.210799431408653,
2023-07-25 18:18:59.120,-40.243903,132.4542695,-2.46951225,0.04309075,-0.8311005,0.3505555,1.5118088703421773,19.69471171936275,
2023-07-25 18:18:59.140,-40.945122749999996,130.96036525,-1.82926825,0.015991,-0.8291014999999999,0.34423825,3.4119499389739323,20.040597206762374,
2023-07-25 18:18:59.160,-41.768293,126.4024414,-0.3292682,-0.0170898,-0.8307494,0.3394532,5.707511195910042,20.21925492862524,
2023-07-25 18:18:59.180,-42.92683025,119.03963675,1.3414635,-0.05575575,-0.830551,0.34294125,8.026749714721213,20.256782839714,
2023-07-25 18:18:59.200,-44.375001,110.2286605,2.45426825,-0.082413,-0.84523025,0.34193425,10.072609436123042,20.176436979855552,
2023-07-25 18:18:59.220,-45.51829325,99.6951255,2.36280475,-0.09948725,-0.8535157499999999,0.32598900000000003,12.15088148354605,19.940649460793402,
2023-07-25 18:18:59.240,-46.3262205,88.9786605,1.1585367500000001,-0.103073,-0.866394,0.29652425,13.566758158365399,18.64978662072675,
2023-07-25 18:18:59.260,-46.006099,79.1310995,-1.38719525,-0.10469075,-0.89613375,0.2763975,13.29524411133795,16.729134013954024,
2023-07-25 18:18:59.280,-44.84756175,69.4207325,-2.637195,-0.11065675,-0.9035035,0.26499925,13.8492100557233,15.973284185224875,
2023-07-25 18:18:59.300,-42.22561075,60.0152465,-3.09451225,-0.10710125000000001,-0.88700875,0.24180625,13.722135486214725,14.959056077923151,
2023-07-25 18:18:59.320,-39.298781250000005,52.5457325,-2.2408535,-0.0962525,-0.8843077500000001,0.20111075,13.356674674296675,13.00221346398215,
2023-07-25 18:18:59.340,-36.69207375,47.774392000000006,-0.8536587499999999,-0.08830275,-0.898697,0.16593925,12.899126694658476,11.012455916432774,
2023-07-25 18:18:59.360,-34.8628055,44.649391249999994,0.8689025,-0.0915375,-0.90238975,0.1455995,12.804373385981325,9.153658527296272,
2023-07-25 18:18:59.380,-33.59756175,40.7621965,3.5213415,-0.10006725,-0.89711025,0.13754275,13.364369590208575,8.53482639841466,
2023-07-25 18:18:59.400,-31.829269,35.9451225,5.06097575,-0.102417,-0.893219,0.135727,13.476520782167576,8.495364867329554,
2023-07-25 18:18:59.420,-29.634147,30.564025,5.045732,-0.0998075,-0.9030914999999999,0.1280975,13.280640754660824,7.880674078966463,
2023-07-25 18:18:59.440,-27.682928,25.640244,4.25304875,-0.09823625,-0.912979,0.11582925,13.167372842887,7.003604914795147,
2023-07-25 18:18:59.460,-25.640245,21.783537250000002,3.32317075,-0.0963135,-0.90934775,0.09532175,13.119808601835,5.809763708288266,
2023-07-25 18:18:59.480,-24.4207325,19.207317500000002,2.637195,-0.09210225,-0.9127655,0.077057,12.765463240278175,4.807694115605477,
2023-07-25 18:18:59.500,-23.079269,17.22561025,1.34146325,-0.08731074999999999,-0.9194945,0.06388875,12.4651232320183,3.891703572301423,
2023-07-25 18:18:59.520,-21.7835375,15.945122,-0.167683,-0.08454875,-0.9319,0.05764775,12.137218933961474,3.4257476736900827,
2023-07-25 18:18:59.540,-18.99390275,15.19817075,-1.417683,-0.08111550000000001,-0.92845175,0.05305475,11.949338955932076,3.1713539588813173,
2023-07-25 18:18:59.560,-14.47561,15.158536799999998,-1.9878052,-0.07794179999999999,-0.9182374,0.0463134,11.85139765290706,2.80103903877108,
2023-07-25 18:18:59.580,-9.9847565,15.16768325,-2.21036625,-0.07716375,-0.91761775,0.0490725,11.76987142918485,3.0058494042383526,
2023-07-25 18:18:59.600,-6.8292684999999995,14.8170735,-1.60060975,-0.0821685,-0.90779125,0.05007925,12.16592296233695,3.1571809961946977,
2023-07-25 18:18:59.620,-4.6036585,14.085366,-1.067073,-0.080368,-0.9047545,0.048904500000000004,12.144116531972525,3.1604045216602676,
2023-07-25 18:18:59.640,-3.2012195,13.003049,-0.67073175,-0.08096300000000001,-0.904785,0.050827,12.04868634097065,3.293495789263985,
2023-07-25 18:18:59.660,-2.66768275,11.5091465,0.0914635,-0.08433550000000001,-0.899872,0.0542145,12.369621305760301,3.4633402258892128,
2023-07-25 18:18:59.680,-2.30182925,9.77134175,0.28963425,-0.08430475,-0.898697,0.05596925,12.3402179414143,3.539222935555025,
2023-07-25 18:18:59.700,-2.62195125,8.18597575,1.0823174999999998,-0.08210775000000001,-0.898514,0.05429075,12.211485554153224,3.4577234917610924,
2023-07-25 18:18:59.720,-2.2713415,6.615853749999999,1.097561,-0.08485424999999999,-0.90081775,0.05152875,12.407800616547325,3.2143083991643526,
2023-07-25 18:18:59.740,-2.4085365,5.487805,1.4786584999999999,-0.08476249999999999,-0.9012910000000001,0.046173,12.361889583450775,2.8308210764718775,
2023-07-25 18:18:59.760,-2.1493905,4.9237804999999994,1.84451225,-0.08282475,-0.907425,0.04516625,12.20621437156,2.8522890729845773,
2023-07-25 18:18:59.780,-1.585366,4.49695125,2.027439,-0.08502175000000001,-0.9075314999999999,0.0421905,12.444828591755076,2.5509154921538775,
2023-07-25 18:18:59.800,-1.082317,4.207317,2.24085375,-0.08607475,-0.91065975,0.0452575,12.4688397729674,2.850387424820455,
2023-07-25 18:18:59.820,-0.015244,3.9176830000000002,1.84451225,-0.08570875,-0.9085235,0.042465,12.344674204322425,2.68328142757153,
2023-07-25 18:18:59.840,0.54878075,3.841464,1.890244,-0.08554075,-0.9075774999999999,0.042496,12.371734807864751,2.6894069820099826,
2023-07-25 18:18:59.860,1.0670730000000002,3.75,1.905488,-0.0867615,-0.9023285,0.04467775,12.592968290075975,2.82184936175696,
2023-07-25 18:18:59.880,1.5091462500000001,3.6585367499999997,1.707317,-0.08808875,-0.90225225,0.0461885,12.592209272576225,2.9482264221314676,
2023-07-25 18:18:59.900,1.3109755,3.567073,1.905488,-0.09158325,-0.9010772499999999,0.04467775,12.865557476261625,2.836069254107985,
2023-07-25 18:18:59.920,1.00609775,3.445122,1.95121975,-0.0897065,-0.90109275,0.046173,12.704916160203725,2.95973074500175,
2023-07-25 18:18:59.940,0.609756,3.277439,1.85975625,-0.0917055,-0.9013825,0.0446015,12.81976223275965,2.9140429048317023,
2023-07-25 18:18:59.960,0.0609755,3.17073175,1.9817075000000002,-0.0923615,-0.9014435000000001,0.0477295,12.760046626242076,2.9935643829575675,
2023-07-25 18:18:59.980,-0.5121952000000001,2.8536583999999996,2.0,-0.0938234,-0.9019288,0.047570999999999995,12.870777665763981,3.052480194923612,
2023-07-25 18:19:00.000,-0.89939025,2.59146325,1.9359757499999999,-0.09423825,-0.90438825,0.0493775,12.96136873474005,3.1617182047447727,
2023-07-25 18:19:00.020,-1.06707325,2.2713415,1.3719510000000001,-0.0940245,-0.90261825,0.04759225,13.01358897725045,2.92196514383565,
2023-07-25 18:19:00.040,-1.280488,1.9054882499999999,1.23475625,-0.094345,-0.9045565,0.045807,12.938063623584874,2.9148673820937026,
2023-07-25 18:19:00.060,-1.3414632499999999,1.67682925,1.0365855,-0.09457425,-0.90258775,0.04554725,12.969001270481325,2.8766419082894825,
2023-07-25 18:19:00.080,-1.402439,1.402439,0.83841475,-0.09487925,-0.90202325,0.044281,12.9875469798289,2.8016494755828774,
2023-07-25 18:19:00.100,-1.387195,1.097561,0.7012195,-0.09451274999999999,-0.90208425,0.0438995,12.984710752958625,2.7717199116971027,
2023-07-25 18:19:00.120,-1.417683,1.05182925,0.472561,-0.09306325,-0.9015960000000001,0.043777500000000004,12.81988444976615,2.7628703615111547,
2023-07-25 18:19:00.140,-1.402439,1.05182925,0.25914625,-0.09146125,-0.90402225,0.03988625,12.75427090627445,2.543686440551305,
2023-07-25 18:19:00.160,-1.5396337500000001,1.3262194999999999,0.30487775,-0.0892795,-0.90129075,0.03591925,12.630596850829676,2.3071687104884826,
2023-07-25 18:19:00.180,-1.87500025,2.027439,0.3810975,-0.08447275,-0.899948,0.0329435,12.2498146278198,2.084269734259265,
2023-07-25 18:19:00.200,-2.28658525,3.10975625,0.5792682499999999,-0.08166525,-0.89956675,0.0329285,12.204539144727224,2.11304930752115,
2023-07-25 18:19:00.220,-2.98780475,4.13109775,0.77743925,-0.08099375,-0.89924625,0.03376775,12.139050886382725,2.181341708601175,
2023-07-25 18:19:00.240,-3.64329275,5.167683,1.7835367500000001,-0.08465575,-0.8941192499999999,0.036972,12.424339484400651,2.28785308620496,
2023-07-25 18:19:00.260,-4.32926825,5.67073175,2.7896342499999998,-0.0858765,-0.8931275000000001,0.03919975,12.53339559530035,2.520839138304745,
2023-07-25 18:19:00.280,-5.487805,5.838415,3.96341475,-0.0879365,-0.89320375,0.03778075,12.708752298692575,2.3931240012315973,
2023-07-25 18:19:00.300,-6.96646375,5.59451225,4.9237805,-0.0921325,-0.89022825,0.037262,13.024512398579525,2.3848745598333077,
2023-07-25 18:19:00.320,-8.521341750000001,5.19817075,5.7164635,-0.09558125,-0.8899995,0.0351715,13.133092349480524,2.23546761150652,
2023-07-25 18:19:00.340,-9.95426825,5.182927,6.6463415,-0.09606925,-0.88490275,0.024475,13.303262147655374,1.500361154037805,
2023-07-25 18:19:00.360,-12.698171,6.432926999999999,7.713415,-0.09524525,-0.87480175,0.00659175,13.347778327896025,0.37158016289738083,
2023-07-25 18:19:00.380,-19.048780999999998,11.500000199999999,8.268293,-0.0778932,-0.8531739999999999,-0.040454000000000004,12.936724899921481,-1.2407087675795812,
2023-07-25 18:19:00.400,-33.3689035,22.759147,10.12195125,-0.05661025,-0.85113525,-0.07778950000000001,12.425551937381925,-3.1490989345098876,
2023-07-25 18:19:00.420,-46.70731825,35.6859765,8.628048750000001,-0.058548249999999996,-0.87828075,-0.06564325,11.15003265015585,-4.50004212377963,
2023-07-25 18:19:00.440,-56.64634325,47.5457325,7.16463425,-0.0741425,-0.898346,-0.065918,11.287071970719175,-5.273351673852255,
2023-07-25 18:19:00.460,-60.25914875,56.7073185,3.55182925,-0.0896455,-0.91409325,-0.05876175,11.84660607204485,-5.39454520118524,
2023-07-25 18:19:00.480,-60.82317175,62.28658775,1.73780475,-0.10769675000000001,-0.9192655000000001,-0.0601655,12.514526776337199,-5.6239151995304075,
2023-07-25 18:19:00.500,-59.10061175,64.31402399999999,0.655488,-0.12495400000000001,-0.9238435,-0.0585785,13.21080690349105,-5.881633221103817,
2023-07-25 18:19:00.520,-55.76219675,62.5762205,0.0609755,-0.133545,-0.92092875,-0.0782165,14.0419759392078,-6.169352722469385,
2023-07-25 18:19:00.540,-52.22561075,58.0792705,0.0762195,-0.1424405,-0.921982,-0.0867615,14.943355601949825,-6.43577768782083,
2023-07-25 18:19:00.560,-48.62804975,51.61585425,0.42682950000000003,-0.147812,-0.91328425,-0.10975675,15.9581236480333,-7.130892853196521,
2023-07-25 18:19:00.580,-44.496953,44.420733500000004,0.7317072499999999,-0.1489105,-0.91307075,-0.12774649999999999,16.136742525986374,-8.197139073496075,
2023-07-25 18:19:00.600,-39.908537,36.7682935,0.85365875,-0.1420745,-0.897217,-0.15730275,15.926671010503625,-10.059452091720493,
2023-07-25 18:19:00.620,-35.914634750000005,29.771342250000004,1.3262195,-0.13594075,-0.89598075,-0.18322775,15.336630382790075,-11.75432608667425,
2023-07-25 18:19:00.640,-32.713415,23.4603665,1.2042685,-0.1287845,-0.89425625,-0.20912175,15.014936724838176,-13.2730757084117,
2023-07-25 18:19:00.660,-30.76219575,18.1250005,0.88414625,-0.12381,-0.8941495,-0.235504,14.6824253792244,-14.699068016278524,
2023-07-25 18:19:00.680,-28.99390275,13.64329275,0.167683,-0.1219175,-0.894577,-0.2597505,14.4984702010755,-16.251898633645474,
2023-07-25 18:19:00.700,-26.67682975,9.98475625,-0.27439,-0.11804200000000001,-0.8932497500000001,-0.27719125,14.085535725908901,-17.319668387756252,
2023-07-25 18:19:00.720,-23.506097750000002,7.012195,-0.8231707500000001,-0.11328125,-0.89402775,-0.2865145,13.9895845707999,-17.91748487251905,
2023-07-25 18:19:00.740,-20.5030495,4.679878,-1.21951225,-0.11119075,-0.8877565000000001,-0.29989625,13.736700678376899,-18.744204119983,
2023-07-25 18:19:00.760,-18.0335375,2.85060975,-1.49390225,-0.107788,-0.88291925,-0.31071475,13.565695037915324,-19.540143946796974,
2023-07-25 18:19:00.780,-15.89939025,1.63109775,-1.9664635000000001,-0.102646,-0.87911975,-0.3214265,13.198166014929775,-20.124450774991423,
2023-07-25 18:19:00.800,-13.9634148,0.5609756,-2.1219512000000003,-0.104114,-0.8754636,-0.3263918,13.196842438238638,-20.4336347032691,
2023-07-25 18:19:00.820,-12.1341465,-0.33536575,-2.1036585,-0.102173,-0.8770295,-0.326645,13.266171111018775,-20.377352787968373,
2023-07-25 18:19:00.840,-10.56402475,-0.96036575,-2.3018295,-0.1007385,-0.87898225,-0.3206025,13.100714476872225,-20.230008611853677,
2023-07-25 18:19:00.860,-8.75,-1.692073,-2.5152437500000002,-0.098328,-0.8763275,-0.31799325,12.98462575490035,-19.983291144708925,
2023-07-25 18:19:00.880,-7.362805,-1.99695125,-2.37804875,-0.09312424999999999,-0.866043,-0.3223265,12.740628009983201,-20.4594793781517,
2023-07-25 18:19:00.900,-7.317073499999999,-1.50914625,-1.25000025,-0.086899,-0.863266,-0.31910700000000003,12.509130894627976,-20.345864879520374,
2023-07-25 18:19:00.920,-7.86585375,-0.807927,-0.137195,-0.08198525,-0.86877425,-0.32171625000000004,12.0692941299334,-20.3548588554532,
2023-07-25 18:19:00.940,-7.8963415,-0.10670725,0.304878,-0.0847015,-0.8744355,-0.31973275,12.081135542193975,-20.1712590496751,
2023-07-25 18:19:00.960,-7.25609775,0.48780475,0.289634,-0.08503725000000001,-0.87521325,-0.320984,12.2653282353907,-20.06064958304085,
2023-07-25 18:19:00.980,-6.3262195000000006,0.8536585,0.2591465,-0.0885925,-0.875229,-0.320343,12.515846501386001,-20.18006893729115,
2023-07-25 18:19:01.000,-5.182927,0.7164635,-0.0762195,-0.090515,-0.87698375,-0.31864899999999996,12.52044928618725,-19.9796943971157,
2023-07-25 18:19:01.020,-4.0091465,0.45731725,-0.457317,-0.09205625,-0.871521,-0.32092275,12.611552153621876,-20.316418287586124,
2023-07-25 18:19:01.040,-3.62804875,-0.015243999999999994,-0.457317,-0.0938875,-0.8692015,-0.32597325,12.79979359841035,-20.560297468887175,
2023-07-25 18:19:01.060,-3.07926825,-0.60975625,-0.88414625,-0.09053025,-0.8694459999999999,-0.328125,12.6046117175673,-20.517117001876024,
2023-07-25 18:19:01.080,-2.8963415,-1.1585367500000001,-0.762195,-0.08987425,-0.8670042499999999,-0.3316345,12.626169435334425,-20.826977388601026,
2023-07-25 18:19:01.100,-2.515244,-1.6463415,-1.0365855,-0.0885315,-0.865982,-0.3308715,12.379981083254874,-20.977047404022002,
2023-07-25 18:19:01.120,-2.027439,-1.890244,-1.0365855,-0.09025575,-0.86154175,-0.337494,12.60223740905745,-21.4362842756843,
2023-07-25 18:19:01.140,-2.195122,-1.7682927499999999,-0.36585375,-0.090088,-0.86135875,-0.34330725,12.571065958132401,-21.739581691719675,
2023-07-25 18:19:01.160,-1.99695125,-1.60060975,-0.07621975,-0.08705125,-0.86721775,-0.342972,12.253360016112325,-21.520946500236953,
2023-07-25 18:19:01.180,-1.20426825,-1.41768275,-0.0762195,-0.08752425,-0.8654785,-0.3424835,12.445848507742625,-21.681629936415526,
2023-07-25 18:19:01.200,-0.3658536,-0.7439026,0.6585368,-0.08747540000000001,-0.8589233999999999,-0.3449464,12.2980484992157,-21.889514580230518,
2023-07-25 18:19:01.220,0.13719525,0.182927,1.21951225,-0.08659375,-0.8606415000000001,-0.3408355,12.372973741395375,-21.643963431623675,
2023-07-25 18:19:01.240,0.2286585,1.097561,1.12804875,-0.086426,-0.8601380000000001,-0.34037775000000003,12.1673800587425,-21.6175093733681,
2023-07-25 18:19:01.260,-0.35060975,2.1493905,1.082317,-0.08815,-0.86042825,-0.33680725,12.39939960760365,-21.306814103606072,
2023-07-25 18:19:01.280,-1.02134175,2.835366,0.9908537500000001,-0.09152199999999999,-0.859375,-0.33699025,12.6580336478806,-21.353364882412226,
2023-07-25 18:19:01.300,-1.85975625,3.26219525,0.8384145,-0.09078975,-0.86076325,-0.33526625,12.56621344901615,-21.19251580440505,
2023-07-25 18:19:01.320,-2.2713417500000004,3.24695125,0.33536575,-0.09289549999999999,-0.86820975,-0.3324585,12.579703489104725,-20.9373334103483,
2023-07-25 18:19:01.340,-1.99695125,2.94207325,0.0609755,-0.091156,-0.867981,-0.33108525,12.7098381891618,-20.8280730770258,
2023-07-25 18:19:01.360,-1.14329275,2.5457315,-0.09146325,-0.09304775,-0.8665465,-0.32843025,12.7434123853896,-20.77122910081215,
2023-07-25 18:19:01.380,-0.76219525,2.1341465,-0.015244,-0.093201,-0.8637542500000001,-0.3302615,12.6996131261615,-20.937343123099602,
2023-07-25 18:19:01.400,-0.3658535,1.6463415000000001,0.3963415,-0.093277,-0.861618,-0.33070375,12.79498228375,-21.057862852832276,
2023-07-25 18:19:01.420,-0.289634,1.432927,0.823171,-0.090149,-0.86384575,-0.328354,12.488387208482076,-20.871922997731723,
2023-07-25 18:19:01.440,-0.5182925,1.1890245,1.219512,-0.09065275,-0.86320475,-0.32775875,12.664130558189001,-20.793226590134676,
2023-07-25 18:19:01.460,-1.09756125,1.112805,1.23475625,-0.09300225,-0.8584134999999999,-0.32212875,12.807190187533351,-20.58570461006725,
2023-07-25 18:19:01.480,-2.4390245,1.1890245,1.1890242500000001,-0.0949555,-0.85522475,-0.323471,12.8506105520356,-20.7213474435625,
2023-07-25 18:19:01.500,-3.9176830000000002,1.21951225,0.8841465,-0.094879,-0.85276825,-0.32627875,12.813482457730125,-21.0738987406628,
2023-07-25 18:19:01.520,-5.41158575,1.26524375,0.7317072499999999,-0.09375,-0.85376,-0.33050525,12.886255025621274,-21.10683747806435,
2023-07-25 18:19:01.540,-6.8140245,1.3414635,0.4268295,-0.091446,-0.86193825,-0.33067325000000003,12.651470109834325,-20.890704288581574,
2023-07-25 18:19:01.560,-7.8353660000000005,1.2042685,-0.12195125,-0.09117125,-0.8616945,-0.32769775,12.6480637002301,-20.86801933829145,
2023-07-25 18:19:01.580,-8.50609775,1.0518290000000001,-0.9603659999999999,-0.08979799999999999,-0.86169425,-0.334488,12.70630130772545,-21.3013778328793,
2023-07-25 18:19:01.600,-9.039634,0.89939025,-1.06707325,-0.08892825,-0.8651885,-0.3383025,12.4332006241179,-21.421025683199925,
2023-07-25 18:19:01.620,-8.9146342,0.9024391999999999,-1.47561,-0.0878662,-0.8549315999999999,-0.345044,12.43580454958468,-22.09017501244952,
2023-07-25 18:19:01.640,-9.359756,1.1890245,-0.76219525,-0.08663925,-0.8544925,-0.34707675,12.380372721078825,-22.05953698759355,
2023-07-25 18:19:01.660,-9.52743925,1.47865875,-1.29573175,-0.085495,-0.84935,-0.35202025000000003,12.2484276201381,-22.5796221492717,
2023-07-25 18:19:01.680,-10.35061,1.78353675,-0.83841475,-0.08345025,-0.84770225,-0.35568225,12.139158662597675,-22.75021207613505,
2023-07-25 18:19:01.700,-11.3871955,2.0426830000000002,-0.80792675,-0.0862275,-0.84901425,-0.35530075,12.3139930143818,-22.7576474150606,
2023-07-25 18:19:01.720,-12.05792725,2.2408537500000003,-1.3109755,-0.08409125,-0.8470307499999999,-0.36158775,12.23615360588255,-23.18189348236805,
2023-07-25 18:19:01.740,-13.49085375,2.48475625,-1.14329275,-0.08624275,-0.84294125,-0.3691405,12.2506158581053,-23.76459015867495,
2023-07-25 18:19:01.760,-14.4512195,2.63719525,-0.8993902500000001,-0.08554075,-0.84709175,-0.38352975,12.3511832941654,-24.48414921750735,
2023-07-25 18:19:01.780,-15.289634249999999,3.00304875,-0.27439025,-0.087921,-0.8479155,-0.39192175,12.4399543311296,-24.83179720465205,
2023-07-25 18:19:01.800,-14.87804925,2.95731725,-0.30487775,-0.0896145,-0.84832775,-0.40213025,12.416114182990976,-25.408751460487174,
2023-07-25 18:19:01.820,-14.039634249999999,2.91158525,-0.47256075,-0.08857725,-0.8506772499999999,-0.4028475,12.253483347209201,-25.3163212471313,
2023-07-25 18:19:01.840,-12.560976,2.652439,-0.9146340000000001,-0.08869925000000001,-0.85075375,-0.40914925,12.428752533425126,-25.717101604449425,
2023-07-25 18:19:01.860,-11.2195125,2.13414625,-1.47865875,-0.08827199999999999,-0.842224,-0.41786175000000003,12.4167017288549,-26.550217820808378,
2023-07-25 18:19:01.880,-10.32012175,1.85975625,-1.52439,-0.08897425,-0.8382415,-0.424652,12.495515620669876,-26.882513881058525,
2023-07-25 18:19:01.900,-9.588415,1.41768275,-1.722561,-0.08584575,-0.8368227500000001,-0.42843625,12.13164978372485,-27.306515515885252,
2023-07-25 18:19:01.920,-9.14634125,1.0213415000000001,-2.057927,-0.08355699999999999,-0.8353275,-0.4331665,12.0254455335258,-27.4392806543357,
2023-07-25 18:19:01.940,-8.5670735,0.74695125,-2.28658525,-0.08361825,-0.83519,-0.43280025,12.095633811242351,-27.366946259154126,
2023-07-25 18:19:01.960,-8.033536999999999,0.5945125,-2.48475625,-0.0829775,-0.83766175,-0.43574525,11.951904341168575,-27.485957167755775,
2023-07-25 18:19:01.980,-7.2865855,0.5335369999999999,-2.71341475,-0.07981875,-0.83845525,-0.43872075,11.860434084315974,-27.7256592203265,
2023-07-25 18:19:02.000,-6.44817075,0.45731725,-3.0030485,-0.07783525,-0.84051525,-0.4400785,11.603271890960075,-27.73054575126315,
2023-07-25 18:19:02.020,-5.472561000000001,0.38109725,-3.1554875,-0.07566824999999999,-0.84008775,-0.440796,11.5043194283364,-27.665830596070847,
2023-07-25 18:19:02.040,-3.8170732000000003,0.5609756,-2.9634148,-0.07219220000000001,-0.8387817999999999,-0.44088120000000003,11.3383692567468,-27.743033889580158,
2023-07-25 18:19:02.060,-2.2560975,0.65548775,-2.7286585,-0.06988525000000001,-0.83390825,-0.4416045,11.0937128953619,-27.911124969418026,
2023-07-25 18:19:02.080,-0.914634,0.8689024999999999,-2.37804875,-0.06716925,-0.83380125,-0.438736,11.0682136863721,-27.642752380428,
2023-07-25 18:19:02.100,-0.2286585,0.8536587499999999,-2.08841475,-0.0686645,-0.82814025,-0.4355775,11.296684739779975,-27.709396710775074,
2023-07-25 18:19:02.120,0.0914635,0.762195,-2.10365875,-0.06546,-0.8297425,-0.4341585,10.9823160889925,-27.604133075430248,
2023-07-25 18:19:02.140,0.0762195,0.777439,-2.012195,-0.06646725,-0.82719425,-0.43150325,11.096169174542325,-27.452633934412425,
2023-07-25 18:19:02.160,-0.24390225000000001,0.6707315,-1.9817075,-0.06478875,-0.826935,-0.43156425,11.03200268300065,-27.566391066289775,
2023-07-25 18:19:02.180,-0.68597575,0.7469515,-1.859756,-0.06337000000000001,-0.82757575,-0.432205,10.8725750182282,-27.57002080456635,
2023-07-25 18:19:02.200,-1.097561,0.8689025,-1.35670725,-0.060638250000000005,-0.83137475,-0.4341125,10.613533572945826,-27.5888952699514,
2023-07-25 18:19:02.220,-1.23475625,1.08231725,-1.09756075,-0.06034875,-0.830246,-0.4334715,10.643195623876275,-27.55633349988155,
2023-07-25 18:19:02.240,-1.02134125,1.097561,-0.70122,-0.060684249999999995,-0.8330385,-0.433777,10.779535746243326,-27.467522582412474,
2023-07-25 18:19:02.260,-0.83841475,0.89939025,-0.60975625,-0.06018075,-0.834198,-0.43499750000000004,10.773164838213274,-27.53944679447835,
2023-07-25 18:19:02.280,-0.5182925,0.625,-0.182927,-0.0618285,-0.82952875,-0.43598925,10.804406164577774,-27.720819058830674,
2023-07-25 18:19:02.300,-0.3963415,0.3963415,0.1981705,-0.0610355,-0.8286285,-0.43952925,10.713555539937076,-27.951650450581873,
2023-07-25 18:19:02.320,-0.12195125000000001,0.457317,0.518293,-0.061401250000000004,-0.8278045,-0.438919,10.7578545068426,-27.94695768722015,
2023-07-25 18:19:02.340,0.24390225,0.47256125,0.7317075,-0.0638735,-0.82728575,-0.44393925,10.9625674457814,-28.20597607009125,
2023-07-25 18:19:02.360,0.503049,0.73170725,1.1585365,-0.0637055,-0.82872,-0.44433625,10.8377671555369,-28.311921934261324,
2023-07-25 18:19:02.380,1.0213415,1.0060975,1.43292675,-0.06662,-0.8296355,-0.4419555,11.047601023856775,-27.932892317519226,
2023-07-25 18:19:02.400,1.84451225,1.17378075,1.1890242500000001,-0.06785574999999999,-0.8350985,-0.43959075000000003,11.1035031254459,-27.75859608709515,
2023-07-25 18:19:02.420,2.46951225,1.097561,0.74695125,-0.06658900000000001,-0.83432025,-0.44042975,11.0532884181218,-27.927752291008826,
2023-07-25 18:19:02.440,2.4634144,0.8292683999999999,0.2682926,-0.0673218,-0.8334842,-0.43566900000000003,11.11003062774092,-27.59318597521518,
2023-07-25 18:19:02.460,2.6981705,0.67073175,0.304878,-0.067749,-0.8277895,-0.4343415,11.117432840845751,-27.677722078456377,
2023-07-25 18:19:02.480,2.2560977500000003,0.640244,0.3810975,-0.06503275,-0.83328275,-0.42961125,11.008527722181574,-27.235915995499752,
2023-07-25 18:19:02.500,2.362805,0.503049,0.289634,-0.06742875,-0.83287025,-0.427948,11.1548761757367,-27.192962362687524,
2023-07-25 18:19:02.520,2.37804875,0.335366,0.53353675,-0.066116,-0.82884225,-0.42745975,10.975505968834625,-27.235684881213473,
2023-07-25 18:19:02.540,2.210366,0.320122,0.8993900000000001,-0.0660705,-0.83154275,-0.42495700000000003,11.015787826858725,-27.0642665136077,
2023-07-25 18:19:02.560,1.890244,0.18292675,0.73170725,-0.06851225,-0.83129875,-0.42466725,11.1998468716013,-27.0820231042105,
2023-07-25 18:19:02.580,1.37195125,0.121951,0.50304875,-0.06744375,-0.83171075,-0.42631525000000003,11.0694463942875,-27.1513980834706,
2023-07-25 18:19:02.600,1.143293,0.09146375000000001,0.41158525,-0.06739824999999999,-0.830124,-0.42578150000000003,11.186413324352301,-27.126800409173224,
2023-07-25 18:19:02.620,0.823171,0.10670725,0.54878025,-0.06634525,-0.8303222499999999,-0.4268645,11.0862050517665,-27.287919905885623,
2023-07-25 18:19:02.640,0.8384145000000001,0.1829265,0.71646325,-0.067795,-0.83177175,-0.42572025,11.082802738537525,-27.0732504042447,
2023-07-25 18:19:02.660,0.68597575,0.19817075,0.76219525,-0.068222,-0.833969,-0.426712,11.2181671900158,-27.17436689085255,
2023-07-25 18:19:02.680,0.53353675,0.304878,0.8841465,-0.0694735,-0.83288575,-0.42831425,11.27973604070775,-27.262881271046076,
2023-07-25 18:19:02.700,0.68597575,0.35060975,0.8536587499999999,-0.069519,-0.83427425,-0.42755150000000003,11.23377831604525,-27.078011397442047,
2023-07-25 18:19:02.720,0.8993905,0.503049,0.792683,-0.06736775,-0.833359,-0.42642225,11.161246227379774,-27.027963263920228,
2023-07-25 18:19:02.740,0.68597575,0.65548775,0.67073175,-0.0691225,-0.8338625,-0.42787149999999996,11.283344363240325,-27.253391174694624,
2023-07-25 18:19:02.760,0.45731725,0.76219525,0.5945125,-0.0681915,-0.831772,-0.42739875,11.1402616288606,-27.223705959627498,
2023-07-25 18:19:02.780,0.03048775,0.76219525,0.5487805,-0.06988525,-0.83078,-0.42785625,11.208485884137726,-27.29838628103055,
2023-07-25 18:19:02.800,-0.10670725,0.76219525,0.39634125,-0.06883225,-0.83404525,-0.42778025,11.110928437582874,-27.155468715291427,
2023-07-25 18:19:02.820,-0.0457315,0.7469515,0.1981705,-0.0692595,-0.835312,-0.4277495,11.240850616796525,-27.100534031519373,
2023-07-25 18:19:02.840,-0.04573175,0.5792685,0.137195,-0.06994625,-0.83537275,-0.427597,11.174353769379675,-27.155393005739626,
2023-07-25 18:19:02.860,0.012195000000000001,0.42682919999999996,-0.1829266,-0.0690432,-0.8325438000000001,-0.42706299999999997,11.2794054784452,-27.14466518565884,
2023-07-25 18:19:02.880,-0.12195125000000001,0.15243875,-0.10670725,-0.06726075000000001,-0.8343659999999999,-0.426773,11.08804959246965,-27.042853376550653,
2023-07-25 18:19:02.900,0.09146325,-0.10670725,-0.16768275,-0.06652825,-0.834778,-0.427948,11.123891731978624,-27.0829235845334,
2023-07-25 18:19:02.920,0.38109775,-0.24390225,-0.0914635,-0.06651325,-0.8378145,-0.42648325,10.98340423532495,-26.927934938232198,
2023-07-25 18:19:02.940,0.762195,-0.45731725,0.0609755,-0.06602475,-0.82974225,-0.42681875,10.881647069379074,-27.18898078604965,
2023-07-25 18:19:02.960,0.76219525,-0.487805,0.640244,-0.06591775,-0.8279875,-0.42857375,10.995917510785,-27.405675288033276,
2023-07-25 18:19:02.980,0.35060975,-0.16768275,1.0060975,-0.0677185,-0.8266755,-0.43071,11.1708404562239,-27.517252178521076,
2023-07-25 18:19:03.000,-0.32012225,0.2591465,0.8079270000000001,-0.06657375,-0.8278195,-0.43283075,11.022299146242075,-27.552335145742525,
2023-07-25 18:19:03.020,-0.7012195,0.7469515,0.8993905,-0.0681455,-0.83082575,-0.4320985,11.2355835535586,-27.4871742068451,
2023-07-25 18:19:03.040,-0.6859755,1.23475625,0.65548775,-0.06938174999999999,-0.83358775,-0.43118275,11.2343926750586,-27.42214172702695,
2023-07-25 18:19:03.060,-0.36585375,1.5091465,0.320122,-0.069992,-0.8367465000000001,-0.43067925,11.34839884194395,-27.163783021039002,
2023-07-25 18:19:03.080,-0.10670725,1.3719515,0.121951,-0.06932050000000001,-0.836685,-0.42694075,11.23664425608925,-27.003208618510698,
2023-07-25 18:19:03.100,0.10670725,1.12804875,0.015244,-0.06878675,-0.8337095,-0.42155475,11.213458469595325,-26.823391254686626,
2023-07-25 18:19:03.120,0.35060975,0.609756,-0.15243925,-0.0718385,-0.83384675,-0.4296265,11.40606835998955,-27.2810579146589,
2023-07-25 18:19:03.140,0.41158525,-0.0609755,0.06097575,-0.0701905,-0.83361825,-0.427643,11.309646627142374,-27.205648043245823,
2023-07-25 18:19:03.160,0.33536575,-0.5487805,0.015244,-0.06947325,-0.8356475,-0.42776474999999997,11.242389447564275,-27.070890572748027,
2023-07-25 18:19:03.180,0.304878,-0.746951,-0.1981705,-0.06839,-0.83187875,-0.42642199999999997,11.186931295328575,-27.168664595108677,
2023-07-25 18:19:03.200,0.19817075,-0.640244,-0.03048775,-0.06597875,-0.8318635,-0.42843625,11.0410183972886,-27.30756720417885,
2023-07-25 18:19:03.220,0.35060975,-0.2439025,0.304878,-0.06738274999999999,-0.830124,-0.43106075,11.143676286747626,-27.439947363160325,
2023-07-25 18:19:03.240,0.0609755,0.2286585,0.51829275,-0.06649775,-0.82775875,-0.4309235,11.074928326165299,-27.50330218045385,
2023-07-25 18:19:03.260,-0.40243900000000005,0.7439026,0.6097562,-0.0679442,-0.8300294000000001,-0.4321532,11.21336969666952,-27.50278059329928,
2023-07-25 18:19:03.280,-0.76219525,1.20426825,0.5640244999999999,-0.0676425,-0.829361,-0.43029775000000003,11.14962988154185,-27.410224134189026,
2023-07-25 18:19:03.300,-0.8231705,1.3262195,0.5945125,-0.0701295,-0.83473225,-0.430176,11.30414795930465,-27.2468767295624,
2023-07-25 18:19:03.320,-0.5487805,1.20426825,0.60975625,-0.0683595,-0.83348075,-0.429718,11.206156157150875,-27.25754044440925,
2023-07-25 18:19:03.340,-0.22865875,0.97561,0.7012195,-0.07121275,-0.834305,-0.4292605,11.36519800760325,-27.22294330464605,
2023-07-25 18:19:03.360,0.10670725,0.609756,0.79268275,-0.0704955,-0.8345035000000001,-0.42832925,11.31543390745775,-27.138469812780624,
2023-07-25 18:19:03.380,0.167683,0.32012175,0.792683,-0.0719755,-0.83576975,-0.429886,11.5066597030945,-27.241748277498676,
2023-07-25 18:19:03.400,0.13719525,0.18292675,0.62499975,-0.0684205,-0.83412175,-0.428879,11.0402908034276,-27.229134034356026,
2023-07-25 18:19:03.420,0.015244,0.182927,0.457317,-0.07144175,-0.833954,-0.4305725,11.350348390032451,-27.281256443934602,
2023-07-25 18:19:03.440,-0.015244,0.18292675,0.304878,-0.068344,-0.83245825,-0.4303285,11.18745703758405,-27.372333944712775,
2023-07-25 18:19:03.460,-0.10670750000000001,0.32012175,0.167683,-0.06939725000000001,-0.8300475,-0.42865,11.3340502408167,-27.307567216055652,
2023-07-25 18:19:03.480,-0.28963425,0.50304875,0.24390225,-0.068634,-0.82760625,-0.43232725,11.16860190077605,-27.559538429941398,
2023-07-25 18:19:03.500,-0.5487805,0.65548775,0.2134145,-0.06976325,-0.82914725,-0.4319455,11.2326057459364,-27.539577156349523,
2023-07-25 18:19:03.520,-0.73170725,0.640244,0.45731725,-0.0689085,-0.8339845,-0.4306945,11.254132638547524,-27.260046786855025,
2023-07-25 18:19:03.540,-0.5945125,0.68597575,0.320122,-0.07034299999999999,-0.8334505,-0.43287675,11.300339637947825,-27.447955380635875,
2023-07-25 18:19:03.560,-0.59451225,0.5335369999999999,0.09146375000000001,-0.06944275,-0.833481,-0.43284625,11.187945942987925,-27.417948446706824,
2023-07-25 18:19:03.580,-0.27439025,0.36585375,0.152439,-0.06956475000000001,-0.83392325,-0.4321595,11.232239688482476,-27.431264479007723,
2023-07-25 18:19:03.600,0.1829265,0.19817075,0.28963425,-0.06808449999999999,-0.83648675,-0.4317475,11.063436893752474,-27.325167469662524,
2023-07-25 18:19:03.620,0.77743925,-0.04573175,0.320122,-0.06893925000000001,-0.83453375,-0.4319765,11.202551979380699,-27.38473817272365,
2023-07-25 18:19:03.640,1.097561,-0.3963415,0.71646375,-0.071518,-0.83027625,-0.43321224999999997,11.422288139705751,-27.49219332888395,
2023-07-25 18:19:03.660,1.12804875,-0.304878,0.7774395,-0.072708,-0.830582,-0.43353274999999997,11.425786955298374,-27.480968014424874,
2023-07-25 18:19:03.680,0.7073174,-0.20731700000000003,0.43902459999999993,-0.0712528,-0.8322385999999999,-0.43387460000000005,11.4364519116867,-27.53155412852476,
2023-07-25 18:19:03.700,0.5945125,0.03048775,0.2134145,-0.070694,-0.831009,-0.43379225,11.29527177993985,-27.5358364153493,
2023-07-25 18:19:03.720,0.45731725,0.137195,0.27439025,-0.071747,-0.83357225,-0.433487,11.3569474262514,-27.486041051725373,
2023-07-25 18:19:03.740,0.79268325,0.152439,0.2286585,-0.070343,-0.833618,-0.43180825,11.361640693497375,-27.34871185362885,
2023-07-25 18:19:03.760,0.945122,0.2591465,0.12195125000000001,-0.070282,-0.833496,-0.431015,11.271966801408825,-27.288142870028075,
2023-07-25 18:19:03.780,1.0365855,0.2134145,-0.16768275,-0.07225025,-0.83180225,-0.4288485,11.3256304653223,-27.220810130806424,
2023-07-25 18:19:03.800,1.03658525,-0.0609755,-0.16768275,-0.07192975,-0.832901,-0.42860425,11.3122374649997,-27.252846959875875,
2023-07-25 18:19:03.820,0.8841465,-0.35060975,-0.0304875,-0.072281,-0.83227525,-0.4270935,11.294954339846274,-27.0822642773285,
2023-07-25 18:19:03.840,0.777439,-0.7317075,0.045732,-0.07099925,-0.83352675,-0.4264525,11.2874085132375,-27.0986155005995,
2023-07-25 18:19:03.860,0.8079270000000001,-1.234756,-0.0609755,-0.07002275,-0.83242775,-0.425949,11.309232524539475,-27.063717312704224,
2023-07-25 18:19:03.880,0.8993905,-1.47865875,0.289634,-0.07078575,-0.83308425,-0.425827,11.27782117488855,-27.055941924049527,
2023-07-25 18:19:03.900,0.92987825,-1.52439025,0.7164635,-0.0698855,-0.83166525,-0.4282075,11.368281543957576,-27.2730352212699,
2023-07-25 18:19:03.920,0.83841475,-1.4329269999999998,0.97560975,-0.07115175,-0.83207725,-0.42692575,11.377418718784075,-27.090969517623574,
2023-07-25 18:19:03.940,0.503049,-1.2042685,0.64024425,-0.0715025,-0.83509825,-0.42742925,11.30585629890435,-27.18711185911945,
2023-07-25 18:19:03.960,0.152439,-1.09756075,0.152439,-0.0707855,-0.832306,-0.42750575,11.32200324374545,-27.1792835327889,
2023-07-25 18:19:03.980,0.15243875,-0.79268275,-0.15243925,-0.06895475,-0.833008,-0.427246,11.094840925632974,-27.198511142716075,
2023-07-25 18:19:04.000,0.2134145,-0.41158525,-0.015244,-0.06838975,-0.830597,-0.4270475,11.193370348086376,-27.220335154148326,
2023-07-25 18:19:04.020,0.04573175,-0.106707,0.457317,-0.06883225,-0.82849125,-0.43060299999999996,11.207642034661774,-27.423606284442325,
2023-07-25 18:19:04.040,-0.335366,0.1981705,1.12804875,-0.069443,-0.8297575,-0.4319,11.324287734965349,-27.495787466714873,
2023-07-25 18:19:04.060,-0.823171,0.35061,1.49390225,-0.0735015,-0.8297425,-0.432617,11.48006852637965,-27.5395557076336,
2023-07-25 18:19:04.080,-0.99085375,0.53353675,1.5091465,-0.07530200000000001,-0.8344422499999999,-0.43389875,11.6813104915481,-27.546713532403427,
2023-07-25 18:19:04.100,-0.6219514,0.4634146,1.0365856,-0.0759522,-0.8379638,-0.4332766,11.66613161952266,-27.33367644445114,
2023-07-25 18:19:04.120,0.18292699999999998,0.18292675,0.44207325,-0.07730125,-0.83949275,-0.430481,11.63444098296455,-27.1822727474386,
2023-07-25 18:19:04.140,0.960366,-0.12195125000000001,-0.04573175,-0.07391375,-0.83711225,-0.43011475,11.42060518789825,-27.185283085646326,
2023-07-25 18:19:04.160,1.44817075,-0.57926825,-0.28963425,-0.07533275,-0.83343525,-0.431793,11.566946818695776,-27.409071783779623,
2023-07-25 18:19:04.180,1.4939025,-0.929878,-0.167683,-0.07281499999999999,-0.83303825,-0.4300385,11.5029334366709,-27.32185645338995,
2023-07-25 18:19:04.200,1.52439025,-1.112805,0.10670725,-0.07437150000000001,-0.831848,-0.43002324999999997,11.539834780446975,-27.318675521102527,
2023-07-25 18:19:04.220,1.44817075,-1.06707325,0.35061,-0.07336424999999999,-0.8337555,-0.42894,11.460153746777975,-27.18025598100905,
2023-07-25 18:19:04.240,1.58536575,-0.82317075,0.5945125,-0.07252525,-0.83352675,-0.429474,11.48974058209765,-27.195540176117824,
2023-07-25 18:19:04.260,1.570122,-0.73170725,0.5640244999999999,-0.073181,-0.833969,-0.427017,11.498158900181476,-27.018913808203376,
2023-07-25 18:19:04.280,1.44817075,-0.67073175,0.42682925,-0.07507325000000001,-0.83184825,-0.4228055,11.647544734654726,-27.0014674895695,
2023-07-25 18:19:04.300,1.28048775,-0.68597575,0.27439025,-0.07406599999999999,-0.8354645,-0.423477,11.5336906907977,-26.854793755772427,
2023-07-25 18:19:04.320,1.265244,-0.792683,0.472561,-0.074417,-0.8315125000000001,-0.42381274999999996,11.509496077625675,-27.046169099224073,
2023-07-25 18:19:04.340,1.234756,-0.746951,1.0365852500000001,-0.07569875000000001,-0.8310547500000001,-0.42390425,11.692485869816725,-26.973043200868524,
2023-07-25 18:19:04.360,0.9603659999999999,-0.503049,1.097561,-0.076294,-0.83193975,-0.42617775,11.7441989045032,-27.140105412722924,
2023-07-25 18:19:04.380,0.5640244999999999,-0.167683,1.097561,-0.0760345,-0.83168,-0.42628475,11.588619814536475,-27.160652886956726,
2023-07-25 18:19:04.400,0.16768275,0.21341475,0.8536587499999999,-0.07746875,-0.8336485,-0.428055,11.7947221261673,-27.218165051294378,
2023-07-25 18:19:04.420,0.16768275,0.5792685,0.670732,-0.07670575,-0.83432,-0.426468,11.585690692046,-27.008174047217274,
2023-07-25 18:19:04.440,0.42682925,0.92987825,0.3810975,-0.07791124999999999,-0.834717,-0.4263,11.743852222039726,-27.061536103416326,
2023-07-25 18:19:04.460,0.68597575,1.219512,0.1829265,-0.07890325000000001,-0.83743275,-0.42704775,11.922678626649125,-27.0511532282082,
2023-07-25 18:19:04.480,0.929878,1.23475625,0.07621975,-0.07809425,-0.83520525,-0.423294,11.760588562769424,-26.869976878034002,
2023-07-25 18:19:04.500,0.7195123999999999,1.0121952,-0.2560974,-0.0794678,-0.8354003999999999,-0.42169179999999995,11.916727052082539,-26.75948025744936,
2023-07-25 18:19:04.520,0.33536575,0.5487805,-0.5487805,-0.07817075,-0.8360595,-0.42295825,11.8281805885492,-26.81972244103945,
2023-07-25 18:19:04.540,0.09146375000000001,0.10670750000000001,-0.8841465,-0.07569875,-0.8358305,-0.422562,11.614483524762626,-26.8404321167306,
2023-07-25 18:19:04.560,0.152439,-0.0914635,-0.64024425,-0.0753325,-0.831482,-0.42300424999999997,11.611284658087024,-26.923897147689924,
2023-07-25 18:19:04.580,0.2134145,0.04573175,-0.15243875,-0.07202125,-0.83203125,-0.42304975,11.415485079264025,-26.932112935474073,
2023-07-25 18:19:04.600,0.152439,0.28963425,0.28963425,-0.07456975,-0.83160375,-0.42573525,11.605535018189125,-27.12394325785425,
2023-07-25 18:19:04.620,0.01524375,0.503049,0.3810975,-0.07250975,-0.8326417500000001,-0.4245605,11.509394830293525,-27.12510051717855,
2023-07-25 18:19:04.640,-0.36585375,0.65548775,0.50304875,-0.0735625,-0.83273325,-0.42445374999999996,11.551179104279775,-26.950858106749322,
2023-07-25 18:19:04.660,-0.7164635,0.5792682499999999,0.320122,-0.07608025,-0.831314,-0.4214325,11.7643040495557,-26.84363757344985,
2023-07-25 18:19:04.680,-0.9603659999999999,0.304878,0.33536575,-0.0749055,-0.8348847500000001,-0.4241485,11.5763183166363,-26.991366048052324,
2023-07-25 18:19:04.700,-1.09756075,0.07621975,0.518293,-0.07554625,-0.8332824999999999,-0.4264985,11.631395688879126,-26.998592808632125,
2023-07-25 18:19:04.720,-0.9756095,0.07621975,0.823171,-0.0762175,-0.8332365,-0.42794825000000003,11.54242140272075,-27.156190310074848,
2023-07-25 18:19:04.740,-0.68597575,0.121951,0.929878,-0.076721,-0.83470175,-0.43122875,11.63061048912985,-27.368719812505827,
2023-07-25 18:19:04.760,-0.50304875,0.320122,0.945122,-0.07707225000000001,-0.83750925,-0.42976375,11.698347074304275,-27.269529754008875,
2023-07-25 18:19:04.780,-0.137195,0.53353675,0.68597575,-0.0793455,-0.83567825,-0.432205,11.892388813729225,-27.279133312029927,
2023-07-25 18:19:04.800,0.13719525,0.77743925,0.609756,-0.076492,-0.83479325,-0.43087774999999995,11.61426773061515,-27.28296628482315,
2023-07-25 18:19:04.820,0.51829275,1.082317,0.48780524999999997,-0.07699600000000001,-0.834427,-0.43016025,11.667231541552175,-27.3198734302364,
2023-07-25 18:19:04.840,0.5792682499999999,1.05182925,0.335366,-0.07870475,-0.83419825,-0.427292,11.82043101787995,-27.105510849773125,
2023-07-25 18:19:04.860,0.3963415,0.8689025,-0.13719475,-0.079422,-0.83450325,-0.42684925,11.798179352157975,-27.1013342385078,
2023-07-25 18:19:04.880,0.3963415,0.5487807499999999,-0.25914625,-0.0800935,-0.8341675,-0.4272615,11.944193793449674,-27.082305705202,
2023-07-25 18:19:04.900,0.5487807499999999,0.304878,-0.24390225,-0.07762150000000001,-0.8335875,-0.42596425000000004,11.7585499479078,-27.04663897313895,
2023-07-25 18:19:04.920,0.6951218,0.2073168,-0.2439024,-0.07686760000000001,-0.834192,-0.42658680000000004,11.66262628355106,-27.028067833465837,
2023-07-25 18:19:04.940,0.70121975,0.06097575,-0.27439025,-0.07626375,-0.8363495,-0.42687975,11.6256113577031,-27.057309109426775,
2023-07-25 18:19:04.960,0.7317075,0.06097575,-0.2134145,-0.0762175,-0.831726,-0.424057,11.6159332678364,-26.965245194418475,
2023-07-25 18:19:04.980,0.70121975,0.22865825,0.0,-0.0735935,-0.8370515000000001,-0.42520125,11.49902047830465,-26.9589853503513,
2023-07-25 18:19:05.000,0.60975625,0.304878,0.15243925,-0.07542425,-0.830185,-0.425339,11.630628937668225,-27.161413721733076,
2023-07-25 18:19:05.020,0.36585375,0.289634,0.7012197499999999,-0.07543949999999999,-0.8276825,-0.427887,11.70491786165465,-27.362642751287652,
2023-07-25 18:19:05.040,-0.01524375,0.3658535,0.823171,-0.0796355,-0.8305665,-0.4296725,11.8965089273966,-27.361080435903702,
2023-07-25 18:19:05.060,-0.21341425,0.487805,0.65548775,-0.0777435,-0.83102425,-0.42927525,11.68136055981875,-27.39011456701905,
2023-07-25 18:19:05.080,-0.1219515,0.6707315,0.51829275,-0.07900975,-0.8361055000000001,-0.4296875,11.8316634246909,-27.23050803790575,
2023-07-25 18:19:05.100,0.304878,0.73170725,0.19817075,-0.07843,-0.83692925,-0.429367,11.8610166209635,-27.186069714572724,
2023-07-25 18:19:05.120,0.823171,0.71646325,0.04573175,-0.07675175,-0.837448,-0.42785625,11.7919410742558,-27.104702568117975,
2023-07-25 18:19:05.140,1.1737805,0.5487805,-0.19817075,-0.07777400000000001,-0.8354644999999999,-0.42552175,11.765317270788625,-26.985440762380026,
2023-07-25 18:19:05.160,1.3262195,0.18292675,-0.22865825,-0.07800275,-0.8341675,-0.4250945,11.7325465903697,-27.060718577609276,
2023-07-25 18:19:05.180,1.20426825,0.045732,-0.320122,-0.07682825,-0.833893,-0.42454525,11.7018992397252,-26.930014834521476,
2023-07-25 18:19:05.200,0.8993905,0.03048775,-0.137195,-0.074402,-0.834427,-0.42391975,11.5225968030909,-26.98926912819935,
2023-07-25 18:19:05.220,0.8841465,0.06097575,-0.33536575,-0.0754855,-0.8387450000000001,-0.422104,11.770665988423625,-26.729252132836052,
2023-07-25 18:19:05.240,0.99085375,0.06097575,-0.2286585,-0.07354725000000001,-0.83288575,-0.42088325,11.530213197716499,-26.841166767262674,
2023-07-25 18:19:05.260,1.0670730000000002,0.35060975,0.13719525,-0.0744325,-0.83203125,-0.42118825000000004,11.5685203624436,-26.874968139341476,
2023-07-25 18:19:05.280,0.8079270000000001,0.51829275,0.33536575,-0.0756685,-0.8319855,-0.42323275,11.659525558586175,-26.985502622473902,
2023-07-25 18:19:05.300,0.42682925,0.5945125,-0.01524425,-0.0746765,-0.8331452500000001,-0.4239045,11.581920443549675,-26.9591087943701,
2023-07-25 18:19:05.320,-0.1951218,0.6341464,0.0365856,-0.0754882,-0.8328126000000001,-0.4242674,11.600099215424361,-27.01453221616864,
2023-07-25 18:19:05.340,-0.167683,0.65548775,0.1829265,-0.07615675,-0.83227525,-0.42465225,11.603667751893074,-26.9449360769419,
2023-07-25 18:19:05.360,-0.030488,0.41158525,0.2286585,-0.0782165,-0.8359375,-0.42483550000000003,11.762616029030074,-26.9199607896183,
2023-07-25 18:19:05.380,-0.01524375,0.1981705,0.12195125000000001,-0.0765685,-0.836792,-0.42478950000000004,11.56034622301965,-26.88582124677095,
2023-07-25 18:19:05.400,0.13719525,0.12195125000000001,-0.030488,-0.07519524999999999,-0.835846,-0.42817675,11.549921244974476,-27.089350583308224,
2023-07-25 18:19:05.420,0.57926875,0.0762195,-0.0762195,-0.07586675,-0.83593725,-0.426483,11.60697290837795,-27.131666245747297,
2023-07-25 18:19:05.440,0.8993905,0.22865825,-0.12195125000000001,-0.075836,-0.83625775,-0.428894,11.546951207639351,-27.105552198490024,
2023-07-25 18:19:05.460,1.21951225,0.35061,-0.06097575,-0.075226,-0.83686825,-0.42623900000000003,11.617271596389674,-26.86224584908295,
2023-07-25 18:19:05.480,1.53963425,0.42682925,-0.10670725,-0.07490525,-0.835968,-0.42610175,11.514225572431675,-27.017268432215,
2023-07-25 18:19:05.500,1.57012175,0.472561,-0.0762195,-0.074417,-0.8356932499999999,-0.42434675,11.47581793100445,-26.8970893099287,
2023-07-25 18:19:05.520,1.4634147499999999,0.5792682499999999,-0.137195,-0.07733124999999999,-0.8348085000000001,-0.42282125000000004,11.768421034142,-26.909145039805352,
2023-07-25 18:19:05.540,1.37195125,0.518293,-0.27439025,-0.0762635,-0.83461025,-0.42140175,11.701000316410225,-26.8118233142885,
2023-07-25 18:19:05.560,1.387195,0.503049,-0.25914625,-0.07383725,-0.83326725,-0.420105,11.423395274744475,-26.658266615312726,
2023-07-25 18:19:05.580,1.28048775,0.457317,-0.304878,-0.07562275,-0.83460975,-0.41938775,11.585526700700374,-26.7272351178577,
2023-07-25 18:19:05.600,1.05182925,0.36585375,-0.32012175,-0.0762025,-0.8381350000000001,-0.418274,11.588082258869974,-26.4974781575993,
2023-07-25 18:19:05.620,1.1890245,-0.030488,-0.640244,-0.07394425,-0.8387605,-0.41629025,11.430363715699174,-26.379304885143775,
2023-07-25 18:19:05.640,1.31097575,-0.320122,-0.5792685,-0.0723875,-0.83677675,-0.41452025,11.387545662284975,-26.23721021805415,
2023-07-25 18:19:05.660,1.3109755,-0.5640244999999999,-0.3963415,-0.0717925,-0.834259,-0.4140015,11.408015732526925,-26.42742743584885,
2023-07-25 18:19:05.680,0.960366,-0.56402475,0.320122,-0.07005325,-0.83129875,-0.41783125,11.329259044178675,-26.651230303086173,
2023-07-25 18:19:05.700,0.4115855,-0.39634125,0.74695125,-0.069687,-0.8321685,-0.41979975,11.259360588895674,-26.840011055724975,
2023-07-25 18:19:05.720,-0.13719525,0.04573175,0.8384149999999999,-0.07151774999999999,-0.83352675,-0.4199065,11.286800050045525,-26.7373123317606,
2023-07-25 18:19:05.740,-0.573171,0.6585368,0.890244,-0.0713256,-0.834314,-0.4206054,11.40211732939704,-26.744291066887797,
2023-07-25 18:19:05.760,-0.65548775,1.1890245,0.85365875,-0.07290674999999999,-0.8350372500000001,-0.42050175,11.50185625185135,-26.722224228119575,
2023-07-25 18:19:05.780,-0.5945125,1.387195,0.8536585,-0.07516475,-0.83517475,-0.42221074999999997,11.604898367464,-26.891227631377625,
2023-07-25 18:19:05.800,-0.53353675,1.2042685,0.64024375,-0.07724,-0.8391265,-0.4202115,11.666854481575026,-26.578612325146075,
2023-07-25 18:19:05.820,-0.106707,0.8384145,0.3963415,-0.07783525,-0.8391875,-0.41845699999999997,11.6241655722074,-26.4808282713076,
2023-07-25 18:19:05.840,0.18292675,0.320122,0.24390225,-0.078598,-0.8388825,-0.41778575,11.85158390540835,-26.42445897058385,
2023-07-25 18:19:05.860,0.47256125,-0.25914625,0.259146,-0.078247,-0.83621225,-0.421112,11.76272097838985,-26.729995508052248,
2023-07-25 18:19:05.880,0.5487807499999999,-0.7012197499999999,0.10670725,-0.07777400000000001,-0.8382875,-0.4211425,11.738219494549625,-26.679621621538075,
2023-07-25 18:19:05.900,0.60975625,-0.76219525,-0.2134145,-0.07510375,-0.8372802500000001,-0.4244385,11.43194098266145,-26.915131744038902,
2023-07-25 18:19:05.920,0.640244,-0.5487807499999999,-0.121951,-0.073242,-0.8333285,-0.42323299999999997,11.3587008987181,-26.924909564171173,
2023-07-25 18:19:05.940,0.5792685,-0.1829265,0.2439025,-0.07164,-0.8310850000000001,-0.42593400000000003,11.4622858244245,-27.251800646987526,
2023-07-25 18:19:05.960,0.27439025,0.38109775,0.1981705,-0.07328825,-0.83360275,-0.42375175,11.4733785984126,-26.96042735952105,
2023-07-25 18:19:05.980,0.06097575,0.76219525,0.137195,-0.07412725,-0.83276375,-0.42366,11.5347466763519,-26.9471785984129,
2023-07-25 18:19:06.000,0.0,0.99085375,0.24390250000000002,-0.07264725,-0.833435,-0.424469,11.538413133072375,-26.955432271560326,
2023-07-25 18:19:06.020,0.0762195,1.1890245,0.609756,-0.07595825,-0.83447275,-0.42460624999999996,11.626891013399325,-27.004866181873876,
2023-07-25 18:19:06.040,0.16768275,1.05182925,0.6859755,-0.0759735,-0.83854675,-0.42277549999999997,11.619691579597175,-26.7246013726392,
2023-07-25 18:19:06.060,0.472561,0.82317075,0.51829275,-0.07928475,-0.841202,-0.42073075,11.749508527902375,-26.4857972233022,
2023-07-25 18:19:06.080,0.777439,0.487805,0.39634175,-0.0775605,-0.8417815,-0.41972375,11.736446003318425,-26.4851429048286,
2023-07-25 18:19:06.100,0.823171,0.152439,0.015244,-0.079117,-0.8395845,-0.41912825,11.839625388372975,-26.56056250176655,
2023-07-25 18:19:06.120,0.74695125,-0.152439,-0.0914635,-0.07913225,-0.83992025,-0.4174805,11.877348382654574,-26.447384688374,
2023-07-25 18:19:06.140,0.6097562,-0.3780488,-0.2804876,-0.0752688,-0.8342896,-0.4192628,11.55325366382072,-26.709777891936938,
2023-07-25 18:19:06.160,0.45731725,-0.25914625,-0.167683,-0.07519525,-0.8329315,-0.4196015,11.6534419078661,-26.682858811397672,
2023-07-25 18:19:06.180,0.33536575,-0.18292675,-0.2134145,-0.07310475,-0.8340147499999999,-0.41900625,11.5830657659288,-26.68431664419575,
2023-07-25 18:19:06.200,0.2134145,-0.07621925,0.01524375,-0.0739595,-0.835556,-0.42211925,11.601596281800175,-26.853556471754374,
2023-07-25 18:19:06.220,0.12195125000000001,0.04573175,-0.030488,-0.07382174999999999,-0.8368227500000001,-0.420578,11.5080140419813,-26.64372361536215,
2023-07-25 18:19:06.240,0.10670750000000001,0.015244,0.01524375,-0.07292175000000001,-0.836395,-0.421158,11.3845291187524,-26.779928445095052,
2023-07-25 18:19:06.260,0.137195,0.04573175,0.15243875,-0.07682800000000001,-0.8392029999999999,-0.4200895,11.608969356437349,-26.60438010596285,
2023-07-25 18:19:06.280,0.457317,-0.07621975,0.10670750000000001,-0.074921,-0.83779925,-0.41900625,11.581929012687276,-26.6198107971127,
2023-07-25 18:19:06.300,0.67073175,-0.21341475,0.182927,-0.07365425,-0.839722,-0.41958625,11.38362658611885,-26.506399361303526,
2023-07-25 18:19:06.320,0.99085375,-0.51829275,0.33536575,-0.0744935,-0.836441,-0.41990675,11.5183575691605,-26.665611753762448,
2023-07-25 18:19:06.340,1.05182925,-0.7164635,0.77743925,-0.07432575,-0.834076,-0.41925075,11.420637570349426,-26.716875044054,
2023-07-25 18:19:06.360,0.67073175,-1.03658525,1.0213415000000001,-0.07403575000000001,-0.833969,-0.421585,11.574173919190425,-26.8473062972336,
2023-07-25 18:19:06.380,0.44207325,-1.3567075,1.03658525,-0.0788115,-0.8339995,-0.421768,11.8676628066689,-26.82320705933065,
2023-07-25 18:19:06.400,0.27439025,-1.6006095,1.1890245,-0.07797224999999999,-0.8340605,-0.42150875,11.905621669330525,-26.783682268949974,
2023-07-25 18:19:06.420,0.60975625,-1.69207275,1.3719510000000001,-0.07833875,-0.83934025,-0.420471,11.754708808032625,-26.607170816583327,
2023-07-25 18:19:06.440,1.23475625,-1.63109725,1.28048775,-0.07963575,-0.8390197500000001,-0.4227295,11.860849001949525,-26.734662527393876,
2023-07-25 18:19:06.460,1.7835364999999999,-1.5091465,0.777439,-0.0802915,-0.84034725,-0.4211885,11.8128224376084,-26.5757696779079,
2023-07-25 18:19:06.480,2.19512175,-1.12804875,0.320122,-0.07754525,-0.83950775,-0.42419450000000003,11.727234359250724,-26.844529412337575,
2023-07-25 18:19:06.500,2.2865855,-0.8536585,0.24390225,-0.0775605,-0.83889775,-0.42449950000000003,11.748520087577225,-26.84419796608265,
2023-07-25 18:19:06.520,2.65243875,-0.487805,0.33536575,-0.08093249999999999,-0.83775325,-0.421814,12.042287638092274,-26.638869287466274,
2023-07-25 18:19:06.540,3.0335365,-0.487805,0.44207325,-0.0805205,-0.840683,-0.41671775,11.864071606954575,-26.310835448023226,
2023-07-25 18:19:06.560,3.4268294,-1.0121952,0.43902459999999993,-0.082068,-0.8404664000000001,-0.41149899999999995,12.000756442321899,-26.06388399233514,
2023-07-25 18:19:06.580,3.597561,-1.53963425,0.64024375,-0.08230575,-0.8388825,-0.4077605,11.966125317355075,-25.9129318139423,
2023-07-25 18:19:06.600,3.75,-1.90548775,0.9908537500000001,-0.08149725,-0.834015,-0.410263,12.024312842638274,-26.1847514054908,
2023-07-25 18:19:06.620,3.277439,-2.1036585,1.03658525,-0.082596,-0.8355865,-0.40861475,11.88474067999705,-25.944435141904524,
2023-07-25 18:19:06.640,2.91158525,-1.92073175,0.91463425,-0.08001725,-0.83776825,-0.40988175000000004,12.007750698949575,-26.120878294547474,
2023-07-25 18:19:06.660,2.34756125,-1.44817075,0.7012197499999999,-0.08077999999999999,-0.83874525,-0.40893525,11.945776791604175,-25.9998844611017,
2023-07-25 18:19:06.680,2.1646342499999998,-0.80792725,0.2134145,-0.08102424999999999,-0.84042375,-0.40977475,11.962565190948375,-25.9484233280726,
2023-07-25 18:19:06.700,1.859756,0.13719525,-0.09146375000000001,-0.0819245,-0.8411255,-0.41008,12.104848561194899,-26.0095531411641,
2023-07-25 18:19:06.720,1.707317,0.74695125,-0.320122,-0.08082575,-0.83943175,-0.40557875,11.930266438748625,-25.76844290303985,
2023-07-25 18:19:06.740,1.402439,1.219512,-0.36585375,-0.082901,-0.839096,-0.4045255,12.064164847354975,-25.748815969360827,
2023-07-25 18:19:06.760,1.14329275,1.25,-0.1981705,-0.083145,-0.8415525,-0.400772,12.028921227765025,-25.411495825060328,
2023-07-25 18:19:06.780,0.9451222499999999,1.0060975,-0.137195,-0.08332825,-0.8395995,-0.39898675,12.197402729109175,-25.459933971980952,
2023-07-25 18:19:06.800,0.7317075,0.59451225,-0.01524375,-0.08462525,-0.83868425,-0.39738450000000003,12.16960108383705,-25.38606746851855,
2023-07-25 18:19:06.820,0.457317,0.045731749999999995,0.152439,-0.083847,-0.8382415,-0.39895625,12.1885151259242,-25.473950631302998,
2023-07-25 18:19:06.840,-0.0762195,-0.3658535,0.06097575,-0.0822755,-0.836502,-0.400421,12.088577694952725,-25.5464996831231,
2023-07-25 18:19:06.860,-0.60975625,-0.53353675,0.12195125000000001,-0.08238225,-0.8403475,-0.4034575,11.934172328347724,-25.66086897959765,
2023-07-25 18:19:06.880,-0.792683,-0.503049,-0.045732,-0.08255024999999999,-0.84063725,-0.40553275,12.096027042866625,-25.7449933202252,
2023-07-25 18:19:06.900,-0.823171,0.03048775,0.0457315,-0.08210725,-0.84219325,-0.405182,12.097725579370625,-25.67445608408045,
2023-07-25 18:19:06.920,-0.68597575,0.5792685,-0.0762195,-0.08128375,-0.8417205,-0.4064025,11.935809818476875,-25.790320131472274,
2023-07-25 18:19:06.940,-0.792683,0.77743925,-0.51829275,-0.07922375,-0.84323125,-0.403763,11.74427137039305,-25.515100058520876,
2023-07-25 18:19:06.960,-1.05182925,0.67073175,-0.44207325,-0.07955925,-0.8388215,-0.4052125,11.8139960839714,-25.797403780377675,
2023-07-25 18:19:06.980,-1.0731708,0.29268299999999997,-0.17073159999999998,-0.0791136,-0.8389770000000001,-0.4027954,11.876488244186401,-25.64626623890756,
2023-07-25 18:19:07.000,-1.2499997500000002,-0.09146325,0.777439,-0.0788115,-0.8352662500000001,-0.40499875,11.872514257285602,-25.818454226510852,
2023-07-25 18:19:07.020,-1.402439,-0.21341425,1.112805,-0.08099375,-0.8390045,-0.408783,11.945794024998076,-26.00792620355215,
2023-07-25 18:19:07.040,-1.57012175,-0.12195125,1.0670730000000002,-0.08149725,-0.83950825,-0.4137115,11.92188201712475,-26.288689669816325,
2023-07-25 18:19:07.060,-1.37195125,0.18292675,1.15853675,-0.08161925,-0.83818075,-0.41635125,12.105135761896076,-26.411093746078674,
2023-07-25 18:19:07.080,-1.23475625,0.7164634999999999,0.9908539999999999,-0.08354175,-0.83908075,-0.41535924999999996,12.078185244281975,-26.3664656169816,
2023-07-25 18:19:07.100,-1.08231725,0.9908535,0.83841475,-0.084564,-0.83821125,-0.41670225,12.013599216812976,-26.383691467519377,
2023-07-25 18:19:07.120,-0.99085375,1.112805,0.70121925,-0.0852205,-0.8391115,-0.414978,12.2065919631961,-26.287671097971526,
2023-07-25 18:19:07.140,-0.83841475,0.8841462499999999,0.50304875,-0.0858155,-0.8421322499999999,-0.41410825,12.13716974535565,-26.273136184005775,
2023-07-25 18:19:07.160,-0.4268295,0.655488,0.152439,-0.08642575,-0.84158325,-0.411087,12.313863904829075,-26.066588331168575,
2023-07-25 18:19:07.180,0.12195125,0.2439025,-0.10670750000000001,-0.08859225,-0.8415985,-0.41168225,12.42505628873455,-26.077753453065274,
2023-07-25 18:19:07.200,0.472561,-0.10670750000000001,-0.152439,-0.08364875,-0.842163,-0.40946975,12.046563368847075,-25.988951432988426,
2023-07-25 18:19:07.220,0.39634125,-0.41158525,-0.304878,-0.08215325,-0.84054575,-0.41032425,11.959247432863675,-26.017617155693575,
2023-07-25 18:19:07.240,0.3810975,-0.64024375,-0.24390225,-0.08238225,-0.8359985,-0.41186500000000004,12.0736625263526,-26.221223996251553,
2023-07-25 18:19:07.260,0.152439,-0.518293,-0.015244,-0.08062725,-0.834793,-0.4123685,11.977394368496725,-26.249408519521502,
2023-07-25 18:19:07.280,0.030488,-0.16768275,0.06097575,-0.08036825,-0.83670025,-0.41462699999999997,11.992472407783675,-26.3415781323004,
2023-07-25 18:19:07.300,-0.03048775,0.2439025,0.045732,-0.08163475,-0.83848575,-0.41477975,11.974066694408375,-26.3999073283,
2023-07-25 18:19:07.320,0.12195125000000001,0.823171,0.07621975,-0.0793,-0.83839425,-0.4140015,11.847921209556075,-26.279901124234378,
2023-07-25 18:19:07.340,0.1341464,1.3170730000000002,0.3170732,-0.080017,-0.8363403999999999,-0.41376939999999995,11.88799832458326,-26.244327354321438,
2023-07-25 18:19:07.360,-0.10670750000000001,1.4634147499999999,0.487805,-0.08255,-0.83682225,-0.40951525,12.1122553634327,-26.0993621211765,
2023-07-25 18:19:07.380,-0.3810975,1.15853675,0.5640244999999999,-0.0845795,-0.83740225,-0.410553,12.19308330593925,-26.1071287273867,
2023-07-25 18:19:07.400,-0.5640244999999999,0.73170725,0.41158525,-0.08616650000000001,-0.83940125,-0.40887450000000003,12.208733025373474,-26.050764784597447,
2023-07-25 18:19:07.420,-0.8841465,0.15243875,0.3810975,-0.085922,-0.83773825,-0.41236849999999997,12.387228819729325,-26.196404545945825,
2023-07-25 18:19:07.440,-0.8841462499999999,-0.19817075,0.259146,-0.084198,-0.8401185,-0.41334525,12.1747059197432,-26.205600017767974,
2023-07-25 18:19:07.460,-0.655488,-0.259146,0.2439025,-0.08418275,-0.8398285000000001,-0.4158175,12.051889361644825,-26.395313724485348,
2023-07-25 18:19:07.480,-0.289634,-0.18292675,0.152439,-0.08271775,-0.84092725,-0.4183655,11.922915783939224,-26.473198463284525,
2023-07-25 18:19:07.500,0.15243875,0.09146325,-0.045732,-0.08436575,-0.840698,-0.41990649999999996,12.134262904934126,-26.588641660084477,
2023-07-25 18:19:07.520,0.625,0.33536575,-0.1981705,-0.0829925,-0.83903525,-0.416809,12.03173009710175,-26.467377811666324,
2023-07-25 18:19:07.540,0.8536585,0.35060975,-0.1981705,-0.084534,-0.838257,-0.41577175,12.1766808024733,-26.411158829490176,
2023-07-25 18:19:07.560,0.96036575,0.3658535,-0.2439025,-0.08282475,-0.8372042500000001,-0.41333025,12.037411761606775,-26.22994423517665,
2023-07-25 18:19:07.580,0.8689025,0.03048775,-0.3506095,-0.08166475,-0.84043875,-0.412567,11.9302063121593,-26.1907070492525,
2023-07-25 18:19:07.600,0.97560975,-0.304878,-0.53353675,-0.08464025,-0.83958425,-0.41160575,12.27271862680905,-26.075318837467623,
2023-07-25 18:19:07.620,1.1585365,-0.503049,-0.3658535,-0.083313,-0.8397675,-0.41163625,12.0864575886496,-26.154884365485,
2023-07-25 18:19:07.640,1.17378075,-0.640244,-0.2134145,-0.07972699999999999,-0.839447,-0.40928675000000003,11.832039684300426,-25.928698006122474,
2023-07-25 18:19:07.660,1.29573175,-0.73170725,-0.33536575,-0.0803985,-0.83723475,-0.40974425000000003,11.97245078115405,-26.124933593736976,
2023-07-25 18:19:07.680,0.7560977999999999,-0.7804878,0.5365856,-0.081787,-0.8325926000000001,-0.4125368,12.09185155056748,-26.39277249427326,
2023-07-25 18:19:07.700,-0.15243875,-0.8841465,0.914634,-0.08061225,-0.83396925,-0.4148255,11.881920860187176,-26.45719984234625,
2023-07-25 18:19:07.720,-0.5792685,-0.82317075,0.9146345,-0.08293125,-0.837906,-0.41513075,12.0654643127426,-26.428833692813924,
2023-07-25 18:19:07.740,-0.59451225,-0.472561,0.8384145,-0.0850375,-0.8387297499999999,-0.41735849999999997,12.270329539799825,-26.53400942448215,
2023-07-25 18:19:07.760,-0.152439,-0.25914625,0.59451225,-0.0847015,-0.8423005,-0.41651925,12.129123818990074,-26.2542497093981,
2023-07-25 18:19:07.780,0.640244,0.03048775,0.48780524999999997,-0.084198,-0.8421022499999999,-0.41252125,12.168910358166375,-26.087114422186623,
2023-07-25 18:19:07.800,1.14329275,-0.030488,0.24390225,-0.08575450000000001,-0.8425905,-0.41186525,12.24184027607135,-26.07202565890445,
2023-07-25 18:19:07.820,1.60060975,-0.2134145,0.15243875,-0.084442,-0.841629,-0.41072074999999997,12.18134946902825,-25.948765953603925,
2023-07-25 18:19:07.840,1.7530489999999999,-0.625,0.06097575,-0.0870055,-0.83947725,-0.4063415,12.332325245116975,-25.800214248209926,
2023-07-25 18:19:07.860,1.6158535,-1.0213415,0.10670725,-0.08377075,-0.8384245,-0.40863025,12.122593541991499,-26.0433403987795,
2023-07-25 18:19:07.880,1.38719525,-1.21951225,0.09146325,-0.08378625,-0.84114075,-0.40541075,12.125780836019576,-25.7499125877447,
2023-07-25 18:19:07.900,1.11280475,-1.539634,-0.015244,-0.08276375,-0.8388215,-0.40658575,12.030221938186575,-25.843066859482377,
2023-07-25 18:19:07.920,1.097561,-1.585366,0.137195,-0.08447225,-0.8377990000000001,-0.40652475,11.9781951372833,-25.91635392358275,
2023-07-25 18:19:07.940,0.99085375,-1.63109725,0.59451225,-0.084244,-0.83631875,-0.40583800000000003,12.19720147418135,-25.943514033067174,
2023-07-25 18:19:07.960,0.792683,-1.8140242500000001,0.94512175,-0.08378574999999999,-0.8352815,-0.40519725,12.085899705378075,-25.841230365010702,
2023-07-25 18:19:07.980,0.503049,-2.4237805,1.097561,-0.08865375,-0.8384705,-0.40425125,12.5738517751151,-25.82599048165935,
2023-07-25 18:19:08.000,0.27439,-3.49085375,1.21951225,-0.09158325,-0.83732625,-0.40461725000000004,12.621957406161474,-25.7874138338386,
2023-07-25 18:19:08.020,0.152439,-5.5335365,1.417683,-0.095444,-0.840805,-0.39883425,12.852597097917524,-25.326761061261326,
2023-07-25 18:19:08.040,1.0243904000000001,-9.646342,1.5243902,-0.1051514,-0.8522218,-0.3846192,13.457841760922639,-24.41264190343292,
2023-07-25 18:19:08.060,3.47560975,-17.118902249999998,0.625,-0.120529,-0.87361125,-0.36328125,14.078788448584675,-23.064663029069827,
2023-07-25 18:19:08.080,7.8963417499999995,-27.713414999999998,0.09146349999999998,-0.142258,-0.8689115000000001,-0.32345575,14.93042944490845,-21.7619356305132,
2023-07-25 18:19:08.100,15.228659,-47.30183025,3.2164635,-0.20129375,-0.8875275,-0.22360225,15.8980729683205,-20.307485112645075,
2023-07-25 18:19:08.120,28.4451225,-78.5975645,2.77439025,-0.2731785,-0.92071525,-0.17230225,17.110086699886402,-18.598293827179873,
2023-07-25 18:19:08.140,43.6890255,-113.84146525,1.7378049999999998,-0.310043,-0.9122315,-0.210739,18.82829347689425,-16.634439426553175,
2023-07-25 18:19:08.160,55.000001749999996,-144.75610325,1.585366,-0.3256075,-0.89770475,-0.26974475,21.102796247479823,-14.934984634649501,
2023-07-25 18:19:08.180,60.533539,-167.68293375,2.5,-0.32223525,-0.89682025,-0.3153535,22.98154294064975,-13.9572562952207,
2023-07-25 18:19:08.200,66.631097,-183.23171274999999,-1.3109757499999999,-0.32514975,-0.9421845,-0.31602475,24.2470358850369,-12.95533169636475,
2023-07-25 18:19:08.220,73.125,-192.27134325,-8.490854,-0.335724,-0.9614715,-0.35124225,25.08400612811755,-11.711839857532425,
2023-07-25 18:19:08.240,77.469513,-192.423786,-16.0670735,-0.3162385,-0.93069475,-0.3901215,25.532977652710827,-10.314843791274498,
2023-07-25 18:19:08.260,79.75609975,-182.545738,-18.38414675,-0.2702025,-0.886917,-0.40289275,25.63639820785845,-8.88047415998837,
2023-07-25 18:19:08.280,79.024393,-165.71646875,-17.560976,-0.2240295,-0.88848875,-0.37834175,25.4333794893753,-7.51803427925498,
2023-07-25 18:19:08.300,75.77744100000001,-144.9085465,-17.08841525,-0.18298325,-0.8774109999999999,-0.344635,24.949070368498475,-6.312981278347615,
2023-07-25 18:19:08.320,69.9847585,-122.774395,-16.49390325,-0.15827950000000002,-0.89598075,-0.2773285,24.206726571091625,-5.313043169814982,
2023-07-25 18:19:08.340,64.1463455,-102.02744274999999,-20.4878055,-0.14491300000000001,-0.9157409999999999,-0.2081755,23.121563556528123,-4.49114333399391,
2023-07-25 18:19:08.360,58.963415499999996,-82.86585425,-25.97561075,-0.1344145,-0.9111175,-0.155304,21.710781320419574,-3.8214827611666125,
2023-07-25 18:19:08.380,54.283538,-64.80183025,-32.48475675,-0.110901,-0.88896175,-0.1148225,19.9474985711248,-3.24559448260826,
2023-07-25 18:19:08.400,49.90244,-45.2195138,-33.3170742,-0.091101,-0.8786376,-0.0578734,17.58403770138576,-2.4814437328550563,
2023-07-25 18:19:08.420,46.310977,-29.862805,-31.58536575,-0.0768585,-0.86474625,0.0158235,15.214573308864,-0.9038079605369808,
2023-07-25 18:19:08.440,43.5823175,-21.2804885,-29.08536625,-0.07434075,-0.86984275,0.07350175,13.8393473767502,1.0801228159277787,
2023-07-25 18:19:08.460,40.3658545,-16.69207375,-28.826220499999998,-0.071579,-0.86094675,0.11193875,12.838995630828226,3.0959503929436574,
2023-07-25 18:19:08.480,36.25000075,-14.908536999999999,-28.9634155,-0.0657655,-0.8471835,0.141846,12.023917937264649,5.04936540813224,
2023-07-25 18:19:08.500,30.0457325,-14.070122,-26.8902445,-0.05378725,-0.84120175,0.1551365,11.2211979838786,6.893466755421414,
2023-07-25 18:19:08.520,23.734757,-13.53658575,-24.84756125,-0.05070475,-0.84591675,0.16555799999999998,10.501946291550025,8.61955258988735,
2023-07-25 18:19:08.540,17.54573175,-14.039634249999999,-23.7957325,-0.0533905,-0.861725,0.18132025000000002,10.047348271425138,10.223924216928356,
2023-07-25 18:19:08.560,13.44512225,-14.7103665,-23.0640245,-0.04910275,-0.85025,0.1847685,9.893896080908505,11.716060658605574,
2023-07-25 18:19:08.580,11.0670735,-14.16158575,-20.45731775,-0.03598,-0.85339375,0.17732275,9.27774530763429,11.717987211974851,
2023-07-25 18:19:08.600,9.28353675,-12.75914675,-17.271342,-0.02702325,-0.8589932499999999,0.16954025,8.656522873122618,11.137274578806625,
2023-07-25 18:19:08.620,6.5243905,-11.554877999999999,-13.841463749999999,-0.0326995,-0.8586579999999999,0.16641225,9.058223828914334,11.04750978772135,
2023-07-25 18:19:08.640,3.3841462499999997,-11.371951249999999,-10.80792675,-0.0320435,-0.86007675,0.16761775,9.019592449655432,11.131553780244776,
2023-07-25 18:19:08.660,1.0213415,-11.76829275,-8.582317,-0.034149,-0.86582925,0.163452,9.238637023307687,10.6838478050639,
2023-07-25 18:19:08.680,-0.320122,-11.55487825,-6.41768325,-0.02896125,-0.85980225,0.15393075,8.848352735877466,10.106188029958997,
2023-07-25 18:19:08.700,-2.0274389999999998,-9.84756125,-3.04878075,-0.0233155,-0.86482225,0.140976,8.560857238328325,9.388562082705583,
2023-07-25 18:19:08.720,-3.612805,-7.33231725,-0.45731675,-0.024612250000000002,-0.873169,0.13621525,8.51203023003572,8.83174061640586,
2023-07-25 18:19:08.740,-5.8048782,-6.1707318,0.1463412,-0.0370606,-0.8952394,0.15301499999999998,9.251259734201781,9.552901293938254,
2023-07-25 18:19:08.760,-6.4939025,-6.8292684999999995,-1.8292682500000002,-0.04235825,-0.89880375,0.15580775000000002,9.757087021151243,9.777804197172898,
2023-07-25 18:19:08.780,-6.03658525,-7.347561,-1.76829275,-0.0377655,-0.8929595,0.15226725,9.342598629332473,9.637988174463857,
2023-07-25 18:19:08.800,-5.38109775,-7.4237804999999994,-0.945122,-0.032547,-0.89102175,0.1431885,9.039112806811325,9.05474224580181,
2023-07-25 18:19:08.820,-5.167683,-7.74390275,0.1829265,-0.03108225,-0.89378375,0.14428749999999999,9.01592895959608,9.20001568726822,
2023-07-25 18:19:08.840,-4.81707325,-8.30792725,0.3963415,-0.02867125,-0.893387,0.14340225,8.731091812868428,9.107323313081965,
2023-07-25 18:19:08.860,-4.7713415,-8.8567075,0.77743925,-0.031112499999999998,-0.8933715,0.14250175,8.96984231698629,9.052143658158908,
2023-07-25 18:19:08.880,-4.64939025,-9.1158535,1.067073,-0.02911375,-0.8936310000000001,0.13926675,8.832075610296108,8.888778483985103,
2023-07-25 18:19:08.900,-4.7560975,-8.9481705,1.6463415,-0.02577225,-0.88945025,0.13121025,8.658419247935973,8.360478984309765,
2023-07-25 18:19:08.920,-5.28963425,-8.307927249999999,2.6676830000000002,-0.0251005,-0.88896175,0.1270905,8.604139920612132,8.102673762922251,
2023-07-25 18:19:08.940,-6.0213415,-8.490854,3.15548775,-0.032913,-0.90043625,0.1338045,9.15292074476273,8.39519500087303,
2023-07-25 18:19:08.960,-6.06707325,-9.81707325,2.68292675,-0.03842175,-0.9013215,0.13687125,9.326800779675697,8.613627126341537,
2023-07-25 18:19:08.980,-5.457317,-11.463415,1.6920730000000002,-0.03785725,-0.89900225,0.13464325,9.456603589821924,8.490157496444493,
2023-07-25 18:19:09.000,-4.847561,-12.83536625,1.7987805,-0.03573625,-0.9005585,0.129837,9.253830251166796,8.216755540202719,
2023-07-25 18:19:09.020,-4.481707500000001,-13.795732,2.1036585,-0.0366975,-0.898834,0.1247255,9.345874602361436,7.835730104712815,
2023-07-25 18:19:09.040,-4.17682925,-14.557927,2.6219514999999998,-0.04229725,-0.895004,0.12268075,9.551092244334493,7.770345214415002,
2023-07-25 18:19:09.060,-4.43597575,-15.27439025,2.89634125,-0.043624750000000004,-0.895279,0.1193695,9.76293255619139,7.4912848138396,
2023-07-25 18:19:09.080,-4.634146250000001,-15.47256075,2.942073,-0.03866575,-0.89614875,0.1110685,9.472462123051464,7.132360390083088,
2023-07-25 18:19:09.100,-4.902438999999999,-14.646341799999998,2.9634144,-0.0359864,-0.8976808000000001,0.10461419999999999,9.249802830822201,6.602349182986865,
2023-07-25 18:19:09.120,-5.1524395,-13.55182975,2.6219515,-0.03851325,-0.90652475,0.10304275,9.471194540093727,6.430540938457925,
2023-07-25 18:19:09.140,-5.320122,-12.33231775,1.8292682500000002,-0.037491,-0.90705875,0.10174575,9.41236132799663,6.322409360585907,
2023-07-25 18:19:09.160,-5.22865875,-11.2195125,0.88414625,-0.03527825,-0.90809625,0.100815,9.166532183973573,6.312713491973378,
2023-07-25 18:19:09.180,-5.21341475,-9.847560999999999,-0.35060975,-0.031784,-0.90522775,0.0957335,9.071527066044034,6.056712488079448,
2023-07-25 18:19:09.200,-5.04573175,-8.155488,-1.26524375,-0.02584825,-0.9040525,0.093155,8.583235902005697,5.867650324314233,
2023-07-25 18:19:09.220,-4.83231725,-6.3567075,-1.31097575,-0.0250855,-0.902527,0.09639,8.592601345425546,6.027468041059698,
2023-07-25 18:19:09.240,-4.7865857499999995,-5.18292675,-2.05792675,-0.025451500000000002,-0.91137675,0.09953325,8.564831456380734,6.140405419959968,
2023-07-25 18:19:09.260,-4.66463425,-4.557926999999999,-3.29268275,-0.025055,-0.9056092499999999,0.09901399999999999,8.544252116718624,6.279571599574263,
2023-07-25 18:19:09.280,-4.3140245,-3.780488,-3.1707315,-0.021881249999999998,-0.9006045,0.09802225,8.30390393881077,6.19562936946958,
2023-07-25 18:19:09.300,-3.8871955,-3.07926825,-2.3932925,-0.01882925,-0.8965455,0.09494,8.18979554570439,5.99974963274812,
2023-07-25 18:19:09.320,-4.009146250000001,-2.39329275,-1.53963425,-0.0174105,-0.895157,0.09245300000000001,8.070943288930827,5.9060399098945595,
2023-07-25 18:19:09.340,-4.28353675,-1.85975625,-0.76219525,-0.01885975,-0.89605725,0.09349075,8.24896968179263,5.967603128273205,
2023-07-25 18:19:09.360,-4.695122,-1.7682927499999999,-0.13719525,-0.0199585,-0.8996887499999999,0.09519925,8.26278675794321,6.0896377682207525,
2023-07-25 18:19:09.380,-4.984756,-2.0426830000000002,0.030488,-0.01902775,-0.9037627500000001,0.09530625,8.131585381081099,6.01453996850919,
2023-07-25 18:19:09.400,-4.90853675,-2.22561,-0.12195125000000001,-0.018692,-0.90159625,0.08953825,8.2299909290968,5.620590553823647,
2023-07-25 18:19:09.420,-4.6341465,-2.1036585,0.51829275,-0.0151215,-0.901657,0.086212,7.978888111337193,5.3636310491848604,
2023-07-25 18:19:09.440,-4.402438999999999,-1.7926829999999998,0.8780488,-0.014209,-0.9040645999999999,0.0825804,7.9493812325815885,5.191411123539828,
2023-07-25 18:19:09.460,-4.375,-1.4634145,1.12804875,-0.01661675,-0.90309125,0.08108525,8.01698636132654,5.125689406292516,
2023-07-25 18:19:09.480,-4.3140245,-1.1890242500000001,0.83841475,-0.017563000000000002,-0.9065397500000001,0.077362,8.117355756772923,4.844215268008997,
2023-07-25 18:19:09.500,-3.9939025,-0.823171,1.03658525,-0.016830499999999998,-0.9013519999999999,0.07466125,8.175987739134401,4.6749365533055425,
2023-07-25 18:19:09.520,-3.64329275,-0.0762195,1.4634145,-0.01393125,-0.90208425,0.07244875,7.897069892629083,4.484195566349222,
2023-07-25 18:19:09.540,-3.64329275,0.8536587499999999,1.85975625,-0.016753999999999998,-0.90531925,0.072525,8.102647368660392,4.624540089548797,
2023-07-25 18:19:09.560,-3.8262195,1.32621975,1.67682925,-0.0210265,-0.9067535,0.074661,8.293328356712214,4.620078282818953,
2023-07-25 18:19:09.580,-4.0091465,1.570122,1.4634147499999999,-0.0212555,-0.90489175,0.07682825,8.312175212394806,4.78111626047911,
2023-07-25 18:19:09.600,-4.161585,1.7987805,1.6463415,-0.02407825,-0.904953,0.07260125,8.565400414411066,4.60059257964877,
2023-07-25 18:19:09.620,-4.25304875,2.0426830000000002,2.0121949999999997,-0.024689,-0.90530375,0.07089225,8.53954444317425,4.459012170757313,
2023-07-25 18:19:09.640,-4.375,2.3323169999999998,2.1036585,-0.02494825,-0.905838,0.0679015,8.676095010868366,4.2942555493346894,
2023-07-25 18:19:09.660,-4.43597575,2.789634,1.70731725,-0.02525325,-0.9075165000000001,0.065567,8.639405900020337,4.01657451165258,
2023-07-25 18:19:09.680,-4.34451225,3.03353625,1.3262195,-0.02940375,-0.91033925,0.06958,8.810195718865307,4.411985790130645,
2023-07-25 18:19:09.700,-4.08536575,2.71341475,0.8689025,-0.03276075,-0.90974425,0.07063275,9.101710394206522,4.4116572584180105,
2023-07-25 18:19:09.720,-3.96341475,2.31707325,0.82317075,-0.037338,-0.90385425,0.066452,9.32084411985071,4.132644783519545,
2023-07-25 18:19:09.740,-3.75,2.2713415,1.08231725,-0.03500375,-0.90444925,0.0621795,9.257015469830964,3.906665898249835,
2023-07-25 18:19:09.760,-3.61280475,2.37804875,1.44817075,-0.0347595,-0.90568525,0.0630185,9.295943592938222,3.966496958472413,
2023-07-25 18:19:09.780,-3.3689025,2.347561,1.4481705,-0.03579725,-0.9099882499999999,0.06387324999999999,9.22536924527477,4.045517067074558,
2023-07-25 18:19:09.800,-2.9634144,2.1097562,0.8902438,-0.0370118,-0.9108031999999999,0.065271,9.322365629410237,4.05042798468728,
2023-07-25 18:19:09.820,-2.5,1.8140245,0.51829275,-0.035614,-0.9088745,0.063156,9.247794962928985,4.00738951795914,
2023-07-25 18:19:09.840,-2.179878,1.4786584999999999,0.13719525,-0.032211500000000004,-0.9063414999999999,0.0605165,9.035313510619446,3.809403167044295,
2023-07-25 18:19:09.860,-2.1341465,1.356707,0.24390225,-0.0327455,-0.90597525,0.059326000000000004,9.068878763257663,3.7301561523259052,
2023-07-25 18:19:09.880,-1.96646375,1.4481709999999999,0.4115855,-0.032028,-0.90567,0.05633525,9.129597015402457,3.6220856389535774,
2023-07-25 18:19:09.900,-2.1951222500000003,1.66158525,0.503049,-0.029205250000000002,-0.9065705,0.05720525,8.84900367679152,3.5788669133295627,
2023-07-25 18:19:09.920,-2.53048775,1.70731725,0.5792682499999999,-0.032516500000000004,-0.90982025,0.05589325,9.03469463795013,3.53195397851345,
2023-07-25 18:19:09.940,-2.48475625,1.34146325,0.304878,-0.028183,-0.9076385,0.05595425,8.662212664531609,3.505581842802535,
2023-07-25 18:19:09.960,-2.179878,1.44817075,0.44207325,-0.03036525,-0.9061585000000001,0.0530395,8.8915692703317,3.347979130176455,
2023-07-25 18:19:09.980,-2.1493902499999997,1.570122,0.7164634999999999,-0.0280455,-0.90628075,0.05326825,8.775511789580733,3.3966715192564876,
2023-07-25 18:19:10.000,-2.210366,1.3262194999999999,0.7317072499999999,-0.0302125,-0.9085084999999999,0.05169675,8.936756797406964,3.280871130907935,
2023-07-25 18:19:10.020,-2.1189025,1.23475625,0.929878,-0.03097525,-0.9056245,0.0499725,8.954812769593625,3.1157159653576,
2023-07-25 18:19:10.040,-2.13414625,1.25,1.2042682500000002,-0.03231825,-0.90643325,0.0488435,9.092087939297377,3.108018291373347,
2023-07-25 18:19:10.060,-2.08841475,1.2957315,1.44817075,-0.031036499999999998,-0.9076995,0.04698175,8.962000638480724,2.9815895342232324,
2023-07-25 18:19:10.080,-1.9359757499999999,1.234756,1.63109775,-0.03408825,-0.9097445,0.0513305,9.144878922169058,3.2366484686574197,
2023-07-25 18:19:10.100,-1.57012175,0.97560975,1.417683,-0.03613275,-0.91151425,0.04704275,9.377464584798687,2.9638098501021024,
2023-07-25 18:19:10.120,-1.23475625,0.91463425,1.4939025,-0.0357055,-0.9092560000000001,0.045044,9.310649121924335,2.81784892436727,
2023-07-25 18:19:10.140,-0.94512175,1.00609725,1.722561,-0.0342865,-0.908493,0.04544075,9.16735702661366,2.8136553724111275,
2023-07-25 18:19:10.160,-0.9390243999999999,0.9634148,1.4390246000000002,-0.037085,-0.9116820000000001,0.044104199999999996,9.377485019615472,2.857960669363484,
2023-07-25 18:19:10.180,-0.8079270000000001,1.09756125,0.929878,-0.03813175,-0.9095155,0.0429535,9.388516773951451,2.6903641446232873,
2023-07-25 18:19:10.200,-0.59451225,1.25,0.823171,-0.03936775,-0.908737,0.04360975,9.367747953746028,2.780110784322668,
2023-07-25 18:19:10.220,-0.41158525,1.28048775,0.76219525,-0.03886425,-0.90805075,0.043441499999999994,9.400883738454471,2.7317338413439027,
2023-07-25 18:19:10.240,-0.304878,1.14329275,0.82317075,-0.0413665,-0.90754725,0.04586775,9.556087440171801,2.9162834331420777,
2023-07-25 18:19:10.260,-0.320122,1.02134125,0.777439,-0.039673,-0.9112852499999999,0.0455015,9.418990746763438,2.7498976094922774,
2023-07-25 18:19:10.280,-0.41158525,0.792683,0.70121975,-0.0394135,-0.9106445000000001,0.04493725,9.45671527352,2.777138876657035,
2023-07-25 18:19:10.300,-0.289634,0.68597575,0.8841465,-0.04112225,-0.9083555,0.045639,9.648555910482543,2.78876957471462,
2023-07-25 18:19:10.320,-0.10670750000000001,0.42682925,0.76219525,-0.037735000000000005,-0.9078364999999999,0.045288,9.442953886459565,2.836781572585095,
2023-07-25 18:19:10.340,0.137195,0.35060975,0.60975625,-0.03884875,-0.911789,0.04257225,9.467819461781684,2.7309199626755025,
2023-07-25 18:19:10.360,0.35060975,0.5640244999999999,0.35060975,-0.03506475,-0.910538,0.04100025,9.068483874886462,2.57081955825207,
2023-07-25 18:19:10.380,0.625,0.92987825,0.22865875000000002,-0.03654475,-0.91014125,0.04072575,9.288742522100428,2.5735370542309175,
2023-07-25 18:19:10.400,0.8079270000000001,1.417683,0.35060975,-0.037414499999999996,-0.90545675,0.04071025,9.39799771430699,2.613196496575085,
2023-07-25 18:19:10.420,0.73170725,1.6158535,0.83841475,-0.039169499999999996,-0.90782175,0.044388,9.479945348986048,2.813504665611375,
2023-07-25 18:19:10.440,0.64024375,1.4786584999999999,0.823171,-0.0408325,-0.9075467500000001,0.04707325,9.632907667680094,2.964374555549915,
2023-07-25 18:19:10.460,0.503049,1.356707,0.625,-0.04032875,-0.9079285,0.047302250000000004,9.475185352408861,2.976176184301245,
2023-07-25 18:19:10.480,0.35060975,1.20426825,0.41158525,-0.04013075,-0.9098815,0.047989,9.598961093441657,3.01278205168486,
2023-07-25 18:19:10.500,0.21951179999999998,0.9634145999999999,0.0,-0.038818399999999996,-0.9078248,0.0471554,9.449098254386609,3.027898610165722,
2023-07-25 18:19:10.520,0.0914635,0.792683,-0.25914625,-0.04103075,-0.90640225,0.04692075,9.625406530240278,2.9359145607438326,
2023-07-25 18:19:10.540,0.015244,0.5792682499999999,-0.015244,-0.041809,-0.90658575,0.0487215,9.614257091050511,3.0818345822163224,
2023-07-25 18:19:10.560,-0.0762195,0.24390225,0.167683,-0.038849,-0.90620425,0.04927075,9.411508042214031,3.1127822554874625,
2023-07-25 18:19:10.580,0.10670725,-0.0609755,0.53353675,-0.03926075,-0.9066315,0.0489195,9.52077119557786,3.094620872497358,
2023-07-25 18:19:10.600,0.0762195,-0.12195125000000001,0.53353675,-0.03546175,-0.9095917499999999,0.042984,9.217180488824802,2.647214201110425,
2023-07-25 18:19:10.620,-0.03048775,0.12195125000000001,0.503049,-0.035369750000000005,-0.909912,0.04145825,9.290817156739232,2.71389580869468,
2023-07-25 18:19:10.640,-0.030488,0.56402475,0.7469515,-0.0358735,-0.906357,0.04179375,9.319084242288312,2.616385001569215,
2023-07-25 18:19:10.660,0.12195125000000001,0.929878,0.9756097499999999,-0.037674,-0.9070285,0.042862,9.376509611434798,2.746361414330515,
2023-07-25 18:19:10.680,0.0914635,1.12804875,1.1890242500000001,-0.040451,-0.9065855,0.04457125,9.550110633894825,2.842653295295115,
2023-07-25 18:19:10.700,0.152439,1.37195125,1.5091462500000001,-0.038009749999999995,-0.9053495,0.0437775,9.465446319207672,2.7944349441233474,
2023-07-25 18:19:10.720,-0.10670725,1.38719525,1.6158535,-0.039642250000000004,-0.9083405,0.04325875,9.597292793596726,2.7792158730566876,
2023-07-25 18:19:10.740,-0.0762195,1.3719510000000001,1.4634147499999999,-0.0429535,-0.9104920000000001,0.045059,9.590456485498475,2.831675342625445,
2023-07-25 18:19:10.760,-0.121951,1.29573175,1.2957315,-0.044174000000000005,-0.9095765,0.0443725,9.752531522575735,2.842598001022715,
2023-07-25 18:19:10.780,0.10670725,1.15853675,1.0213415,-0.04716475,-0.91120925,0.0459595,10.102695962077377,3.0236454090925027,
2023-07-25 18:19:10.800,0.35060975,1.1585367500000001,0.7469515,-0.047973749999999996,-0.9102017499999999,0.04417425,9.98277127683983,2.7491127828388002,
2023-07-25 18:19:10.820,0.44207325,1.09756125,0.50304875,-0.046112,-0.91149925,0.04191575,9.853250543061943,2.62193159947202,
2023-07-25 18:19:10.840,0.38109775,1.097561,0.01524375,-0.045868,-0.9099122500000001,0.041397,9.94853729831972,2.5703805004305624,
2023-07-25 18:19:10.860,0.5,1.1829269999999998,-0.29268299999999997,-0.0456176,-0.9084595999999999,0.0413574,9.855469522688589,2.633232579805008,
2023-07-25 18:19:10.880,0.7317075,1.3719510000000001,-0.3658535,-0.045700000000000005,-0.90705875,0.04417425,9.843094781903252,2.75745996606207,
2023-07-25 18:19:10.900,0.86890275,1.38719525,-0.3506095,-0.04380775,-0.90522775,0.044281,9.767275563060375,2.8471330313539323,
2023-07-25 18:19:10.920,0.8384149999999999,1.5243905,-0.12195125000000001,-0.04310625,-0.9047545,0.045074249999999996,9.6947142762797,2.9132056266329376,
2023-07-25 18:19:10.940,0.7164635,1.417683,-0.06097575,-0.04217525,-0.9069365,0.049057,9.65681511345814,3.112859224717675,
2023-07-25 18:19:10.960,0.670732,0.9603659999999999,-0.04573175,-0.04637125,-0.9071045,0.048996,9.890157548054512,3.1017067093083326,
2023-07-25 18:19:10.980,0.5792685,0.60975625,0.03048775,-0.043747,-0.90850825,0.04722625,9.73114005199168,2.9907924036667173,
2023-07-25 18:19:11.000,0.472561,0.5335369999999999,-0.06097575,-0.0430755,-0.90757725,0.04652375,9.636921146555338,3.0105020807817775,
2023-07-25 18:19:11.020,0.472561,0.6707317500000001,-0.0762195,-0.040924,-0.909241,0.0444795,9.538135459642756,2.7454281534754097,
2023-07-25 18:19:11.040,0.41158525,0.97560975,-0.12195125000000001,-0.03788775,-0.90570075,0.04333475,9.32114931564101,2.74168095116591,
2023-07-25 18:19:11.060,0.4268295,1.34146325,-0.21341475000000001,-0.0345305,-0.9091337500000001,0.0454255,9.082190373728006,2.8657797138461376,
2023-07-25 18:19:11.080,0.472561,1.3262195,-0.7164635,-0.037216,-0.9118805,0.0480345,9.361680792655218,3.1515277893682376,
2023-07-25 18:19:11.100,0.640244,1.41768275,-0.7317075,-0.038086,-0.90744025,0.045349,9.379845013542546,2.8723970710581725,
2023-07-25 18:19:11.120,0.823171,1.570122,-0.18292675,-0.039199750000000005,-0.90278625,0.047226,9.434395810268974,2.972387883757245,
2023-07-25 18:19:11.140,0.762195,1.6006095,0.5182925,-0.041549749999999996,-0.901825,0.04762275,9.526950841129473,3.0433336750769175,
2023-07-25 18:19:11.160,0.51829275,1.52439025,1.11280475,-0.0429685,-0.903305,0.04765325,9.866057725794,2.9512960525524523,
2023-07-25 18:19:11.180,0.25914625,1.4634147499999999,1.53963425,-0.043808,-0.906143,0.048828250000000004,9.76933672228718,3.1097245910790425,
2023-07-25 18:19:11.200,0.09756100000000001,1.2317074,1.3536586,-0.044458,-0.9088502,0.0490234,9.825925395184292,3.068579111486526,
2023-07-25 18:19:11.220,0.10670750000000001,1.0670735,0.82317075,-0.04701275,-0.907303,0.0480195,10.032555260492673,3.0706740422454075,
2023-07-25 18:19:11.240,-0.045732,0.8841462499999999,0.670732,-0.04728725,-0.9075012499999999,0.04548625,9.962292023696177,2.9349189407059977,
2023-07-25 18:19:11.260,-0.18292675,0.746951,0.60975625,-0.045746,-0.906647,0.0487215,9.834249433480622,3.05299853383699,
2023-07-25 18:19:11.280,-0.28963425,0.5487807499999999,0.289634,-0.04599,-0.908676,0.0482025,9.984584489221705,3.083860177085455,
2023-07-25 18:19:11.300,-0.10670725,0.41158525,0.12195125000000001,-0.0457155,-0.9105225,0.04866025,9.863067450805278,3.0200610185196197,
2023-07-25 18:19:11.320,0.0762195,0.38109775,-0.167683,-0.0429535,-0.9116975,0.04510475,9.7925712959265,2.837340121037585,
2023-07-25 18:19:11.340,0.12195125000000001,0.5487807499999999,-0.32012175,-0.0421755,-0.9104615,0.043365749999999995,9.610269298999855,2.7155829315987976,
2023-07-25 18:19:11.360,0.3963415,0.792683,-0.320122,-0.04191575,-0.9075927500000001,0.04527275,9.670948410931814,2.8474136326286774,
2023-07-25 18:19:11.380,0.67073175,1.09756125,-0.0914635,-0.041015499999999996,-0.905777,0.046539250000000004,9.581614351175356,3.036387848367055,
2023-07-25 18:19:11.400,0.73170725,1.0365852500000001,-0.03048775,-0.040543,-0.9052884999999999,0.04927075,9.565903993640738,3.2579676899275674,
2023-07-25 18:19:11.420,0.5335365,0.945122,0.25914625,-0.04441825,-0.905304,0.04742425,9.884672394266452,2.992896875824955,
2023-07-25 18:19:11.440,0.07621975,0.8536587499999999,0.472561,-0.04313675,-0.9057919999999999,0.0450135,9.729308781471826,2.8785451888431153,
2023-07-25 18:19:11.460,-0.24390225000000001,1.06707325,0.70121975,-0.04455575,-0.9062345,0.04539475,9.76131200685126,2.98552548591873,
2023-07-25 18:19:11.480,-0.320122,1.2042685,0.77743925,-0.0458525,-0.90745525,0.04618825,9.777844662515617,2.88958529717845,
2023-07-25 18:19:11.500,-0.35060975,1.097561,0.42682925,-0.04782125,-0.9125825,0.04859925,9.984405821823449,2.9883125012086973,
2023-07-25 18:19:11.520,-0.289634,0.77743925,0.015244,-0.04565425,-0.9113465000000001,0.0450595,9.743927579106803,2.9363481198812376,
2023-07-25 18:19:11.540,-0.04573175,0.7164635,-0.04573175,-0.0471495,-0.908478,0.044281,10.093902912856857,2.7728621514974825,
2023-07-25 18:19:11.560,0.2195122,0.7926832,-0.0243902,-0.0452636,-0.9078858000000001,0.0443726,9.9163989407239,2.7623055438610042,
2023-07-25 18:19:11.580,0.3810975,0.9908537500000001,-0.167683,-0.04406725,-0.90815725,0.0414125,9.725183765584054,2.62637237115008,
2023-07-25 18:19:11.600,0.487805,1.3109757499999999,-0.182927,-0.043274,-0.9087525,0.042618,9.813076735886128,2.6510223937498276,
2023-07-25 18:19:11.620,0.48780475,1.539634,-0.15243875,-0.04489125,-0.90750125,0.0442505,9.848459235246033,2.834186410720277,
2023-07-25 18:19:11.640,0.472561,1.29573175,-0.35060975,-0.0438845,-0.91000375,0.0480955,9.740115778795557,3.0787266616260225,
2023-07-25 18:19:11.660,0.53353675,1.0213415000000001,-0.32012175,-0.044464000000000004,-0.9064485,0.0479435,9.713972505401758,2.95290147654854,
2023-07-25 18:19:11.680,0.4268295,0.9603659999999999,-0.19817075,-0.042160249999999996,-0.9051515,0.0447235,9.649476982345023,2.841374900587105,
2023-07-25 18:19:11.700,0.35060975,1.0365855,0.1829265,-0.04136675,-0.90614325,0.0442045,9.642730148631763,2.816112390528135,
2023-07-25 18:19:11.720,0.0609755,1.17378075,0.33536575,-0.043548500000000004,-0.90570075,0.045532,9.754821144210869,2.9173403951025274,
2023-07-25 18:19:11.740,0.015244,1.0365855,0.22865850000000001,-0.04457075,-0.91008,0.048233,9.694616287453558,2.97768312964695,
2023-07-25 18:19:11.760,0.0,0.74695125,-0.0609755,-0.04429625,-0.90831025,0.04713425,9.792020274811648,2.994712352803825,
2023-07-25 18:19:11.780,0.03048775,0.655488,0.10670725,-0.044693,-0.9064177499999999,0.04330475,9.812050427596235,2.6715708621936773,
2023-07-25 18:19:11.800,0.030488,0.823171,0.487805,-0.04097,-0.90467825,0.042404250000000004,9.59674136558649,2.6029779791958427,
2023-07-25 18:19:11.820,0.137195,0.96036575,0.2591465,-0.04098525,-0.9130555,0.042526,9.601283391414686,2.6418967942329474,
2023-07-25 18:19:11.840,0.50304875,1.23475625,-0.19817099999999999,-0.039612,-0.91165175,0.0445405,9.444133629752805,2.7956285253619972,
2023-07-25 18:19:11.860,0.807927,1.55487825,-0.09146325,-0.0421905,-0.9070739999999999,0.044082500000000004,9.60152664403414,2.78199962163732,
2023-07-25 18:19:11.880,0.8536585,1.90548775,0.33536575,-0.04650875,-0.908371,0.04274,9.934851965310955,2.6572397711272524,
2023-07-25 18:19:11.900,0.655488,1.93597575,0.472561,-0.04478425,-0.9071042500000001,0.04299925,9.957793299404297,2.7997005039612173,
2023-07-25 18:19:11.920,0.3414634,1.7926829999999998,0.45121960000000005,-0.045288,-0.9062621999999999,0.0474974,9.854856428418284,3.01383349541497,
2023-07-25 18:19:11.940,0.2286585,1.7835364999999999,0.70121925,-0.04635625,-0.9057617499999999,0.0458985,9.853687135833226,2.8685509407637477,
2023-07-25 18:19:11.960,0.16768275,1.6310975,0.472561,-0.04823325,-0.9074095,0.04608175,10.131499887417444,2.9448400064100753,
2023-07-25 18:19:11.980,0.01524375,1.58536575,0.18292675,-0.04615775,-0.90863,0.04440325,9.90681238122736,2.7657418174611474,
2023-07-25 18:19:12.000,-0.18292675,1.38719475,0.045732,-0.043442,-0.90721125,0.047836000000000004,9.77759616242856,2.9456656889921673,
2023-07-25 18:19:12.020,-0.22865825,1.25,0.0,-0.04469275,-0.9075165000000001,0.04757675,9.774791804849523,3.01143242337067,
2023-07-25 18:19:12.040,-0.137195,1.2042685,0.0914635,-0.04330425,-0.907181,0.0462035,9.812385978032097,2.92660151244324,
2023-07-25 18:19:12.060,-0.2286585,1.15853675,0.42682925,-0.04303,-0.90995775,0.04635625,9.72035192526339,2.8758116443844126,
2023-07-25 18:19:12.080,-0.24390225,1.09756075,0.3810975,-0.042572250000000006,-0.9088134999999999,0.047501,9.623419026540091,2.9278503812453924,
2023-07-25 18:19:12.100,-0.04573175,1.0518290000000001,0.27439025,-0.04187025,-0.9089355,0.04754625,9.645685729971348,2.9526952285171877,
2023-07-25 18:19:12.120,0.22865850000000001,1.0213415000000001,0.2134145,-0.04238875,-0.9102785,0.047454750000000004,9.640967806072302,2.9378802557430523,
2023-07-25 18:19:12.140,0.42682925,0.9603659999999999,0.0,-0.0453645,-0.9083865,0.046402,9.838381101525394,2.9194656128463725,
2023-07-25 18:19:12.160,0.33536575,0.99085375,-0.015244,-0.0430755,-0.9050445,0.0444185,9.714925027576406,2.881215622448695,
2023-07-25 18:19:12.180,0.09146325,1.14329275,0.35060975,-0.04376225,-0.90290825,0.04367075,9.73581974399607,2.779479212056615,
2023-07-25 18:19:12.200,-0.2591465,1.28048775,0.45731725,-0.044311500000000004,-0.906494,0.0460965,9.85032250053371,2.9744519820593727,
2023-07-25 18:19:12.220,-0.5640244999999999,1.35670725,0.32012175,-0.046981999999999996,-0.90776075,0.0458375,10.001843771930607,2.8448196035997975,
2023-07-25 18:19:12.240,-0.655488,1.402439,0.137195,-0.04574575,-0.90742525,0.04539475,9.882799136168408,2.73507994807897,
2023-07-25 18:19:12.260,-0.7682928,1.3414633999999999,0.4512194,-0.047998,-0.9063842,0.045398,10.075827489488674,2.8540499451605337,
2023-07-25 18:19:12.280,-0.8689024999999999,1.14329275,0.640244,-0.048004,-0.90664675,0.0450285,10.033108454761328,2.8165800086312123,
2023-07-25 18:19:12.300,-0.86890225,0.92987825,0.89939025,-0.049362249999999996,-0.906906,0.04302975,10.139826669080895,2.731668833394715,
2023-07-25 18:19:12.320,-1.02134125,0.8689024999999999,1.097561,-0.04901125,-0.90470875,0.04005425,10.133877918346506,2.585676666845705,
2023-07-25 18:19:12.340,-1.234756,1.1890245,1.23475625,-0.048401,-0.90739475,0.03907775,9.97189153852198,2.4415795893471923,
2023-07-25 18:19:12.360,-1.1890245,1.31097525,1.097561,-0.050766,-0.9121705,0.0401915,10.17318511913072,2.50311027809137,
2023-07-25 18:19:12.380,-0.92987825,1.32621925,0.27439025,-0.05081175,-0.912033,0.04188525,10.317379856632801,2.64169254494626,
2023-07-25 18:19:12.400,-0.60975625,1.280488,-0.2134145,-0.05049125,-0.91233825,0.038162,10.088311141634641,2.390427896159105,
2023-07-25 18:19:12.420,-0.22865825,1.52439,-0.38109775,-0.046295249999999996,-0.9113925,0.036865499999999995,9.9388473999281,2.4151257026493473,
2023-07-25 18:19:12.440,0.12195125,1.6158537499999999,-0.53353675,-0.0452575,-0.9113312499999999,0.037262,9.75191300608955,2.33928444846766,
2023-07-25 18:19:12.460,0.53353675,2.027439,-0.60975625,-0.0386355,-0.9091797500000001,0.036651500000000004,9.322268808651259,2.3667858847978875,
2023-07-25 18:19:12.480,0.792683,2.95731725,-0.3963415,-0.032303,-0.90731825,0.0327605,9.074766029864515,2.152448334379525,
2023-07-25 18:19:12.500,0.76219525,4.390244,0.12195125,-0.027633750000000002,-0.902771,0.0283815,8.77280001762766,1.7047119937281177,
2023-07-25 18:19:12.520,0.6859755,6.64634175,0.945122,-0.0229035,-0.89859,0.02543625,8.57725687027579,1.65740044419214,
2023-07-25 18:19:12.540,-0.167683,8.50609775,2.1341462499999997,-0.030487,-0.9014282499999999,0.0316465,8.804885633908185,1.9226161741150725,
2023-07-25 18:19:12.560,-0.929878,9.20731675,2.45426825,-0.0401765,-0.90478475,0.040863,9.602942601099883,2.605070009032268,
2023-07-25 18:19:12.580,-1.9207317499999998,9.283536250000001,2.789634,-0.043655,-0.89816275,0.037384,9.932555622424188,2.303927841881875,
2023-07-25 18:19:12.600,-3.0335365000000003,9.878049,3.5060975,-0.04269375,-0.893814,0.032135,9.733125941250995,2.110743038515145,
2023-07-25 18:19:12.620,-4.2560978,11.682927000000001,5.0609756,-0.0381714,-0.8908202,0.0202146,9.41544494715205,1.262781709342846,
2023-07-25 18:19:12.640,-5.5182925,14.756098,7.2713417499999995,-0.032303,-0.8902129999999999,0.0080415,9.188962256730022,0.5531475327695717,
2023-07-25 18:19:12.660,-7.042683,20.990854,8.597561,-0.0075987500000000005,-0.8822175,-0.04090875,8.676075651503957,-0.6006389792153685,
2023-07-25 18:19:12.680,-11.02134175,34.847562,11.280488,0.022842499999999998,-0.8498075,-0.120804,8.314657785093097,-1.9698593466610026,
2023-07-25 18:19:12.700,-18.7042685,56.6158555,17.3170735,0.051178,-0.83169575,-0.1739195,7.975201843550748,-3.4796133875594526,
2023-07-25 18:19:12.720,-29.20731725,83.277443,24.55792725,0.056167499999999995,-0.844101,-0.199707,7.67106652886316,-5.1770471402398,
2023-07-25 18:19:12.740,-39.2987805,110.25914975,29.740854249999998,0.02702325,-0.87397775,-0.1873475,7.470260344889283,-7.0920934201812305,
2023-07-25 18:19:12.760,-45.8536595,132.7286625,29.740854249999998,-0.016830249999999998,-0.905014,-0.15342725000000002,7.776738882657782,-8.998112719729813,
2023-07-25 18:19:12.780,-49.5731715,149.115856,27.3780495,-0.06716925,-0.92262275,-0.12382499999999999,9.061114076495556,-9.527967333100456,
2023-07-25 18:19:12.800,-50.335367000000005,159.5121995,24.37500025,-0.10997024999999999,-0.92507925,-0.10943625,10.17080209168364,-9.782692752410526,
2023-07-25 18:19:12.820,-51.2652445,165.0762215,22.469513,-0.1473845,-0.9233245,-0.109909,11.247046012175826,-10.16748919976295,
2023-07-25 18:19:12.840,-52.74390425,166.6615865,20.853659,-0.177582,-0.9204865,-0.11431875,12.32339807040305,-10.705331392676625,
2023-07-25 18:19:12.860,-54.3292695,164.649395,19.66463425,-0.1987305,-0.913971,-0.12464900000000001,13.404046624412025,-11.3924146149742,
2023-07-25 18:19:12.880,-55.7317075,159.29878250000002,17.40853675,-0.20668025,-0.89614875,-0.14587424999999998,14.4218411497201,-12.15997194278655,
2023-07-25 18:19:12.900,-58.185977,151.1432955,19.222561250000002,-0.22047425,-0.90864575,-0.14344774999999998,15.4210616460414,-13.011137302331626,
2023-07-25 18:19:12.920,-55.807928000000004,139.03963475,15.746951500000002,-0.22225925,-0.9178315,-0.15606675,16.162392439041323,-13.670592605991551,
2023-07-25 18:19:12.940,-52.347562499999995,125.36585625,11.493903,-0.21615600000000001,-0.918991,-0.1806335,16.845818643696198,-14.243190176894199,
2023-07-25 18:19:12.960,-46.8048792,109.4756118,6.7317076,-0.2099488,-0.9226684,-0.2058106,17.54074211677646,-14.722207107492078,
2023-07-25 18:19:12.980,-40.594514,92.9573195,2.82012175,-0.20164474999999998,-0.91239925,-0.23577900000000002,18.376033192475425,-15.137369331997425,
2023-07-25 18:19:13.000,-35.6097565,78.0487845,-0.442073,-0.1850435,-0.90881325,-0.258682,18.01489387008025,-15.997055641976576,
2023-07-25 18:19:13.020,-30.746952,64.4207325,-1.9207315,-0.16653425,-0.9002075,-0.285019,17.272515380895026,-17.484406357975924,
2023-07-25 18:19:13.040,-25.823171000000002,52.240855,-2.98780475,-0.152771,-0.883438,-0.30451975,16.188752561739175,-19.214235050954176,
2023-07-25 18:19:13.060,-21.73780575,41.3871965,-2.57621975,-0.137436,-0.869507,-0.33073425,15.387587316970325,-20.7314998701711,
2023-07-25 18:19:13.080,-18.9024385,31.85975725,-0.762195,-0.126999,-0.8602752499999999,-0.34198025,14.795515767126124,-21.767731922089276,
2023-07-25 18:19:13.100,-16.265244250000002,23.0182935,0.39634175,-0.11718775,-0.8582765,-0.34945675,14.1633972059196,-22.221141480360725,
2023-07-25 18:19:13.120,-13.46036625,15.07622,1.2042682500000002,-0.10839825,-0.8599245,-0.3619385,13.60465951274965,-22.936547520212024,
2023-07-25 18:19:13.140,-11.82926875,8.39939025,2.05792725,-0.09835825000000001,-0.86102325,-0.372513,12.911243450868,-23.4226085071585,
2023-07-25 18:19:13.160,-9.298780749999999,3.155488,2.2103657500000002,-0.091095,-0.860718,-0.37954699999999997,12.395307641333325,-23.88572796413525,
2023-07-25 18:19:13.180,-6.82926875,-0.7164635,2.804878,-0.085434,-0.86039725,-0.38366675,12.13329327707005,-24.034614185736874,
2023-07-25 18:19:13.200,-4.375,-3.8871952499999995,3.2012194999999997,-0.08390800000000001,-0.8550415,-0.38504025,12.08771427540545,-24.2140995458241,
2023-07-25 18:19:13.220,-2.68292675,-6.250000249999999,3.44512225,-0.08253474999999999,-0.85661325,-0.385437,12.16568124898845,-24.304392413545674,
2023-07-25 18:19:13.240,-1.35670725,-8.216463749999999,3.38414675,-0.0817415,-0.8576965,-0.38937374999999996,12.019407025482025,-24.388868149325077,
2023-07-25 18:19:13.260,-0.8536585,-9.908536250000001,3.07926825,-0.0819855,-0.865799,-0.38240075,11.9300519136975,-23.805773957225426,
2023-07-25 18:19:13.280,0.27439025,-11.3719515,2.042683,-0.0801545,-0.867157,-0.37976075,11.811141764603025,-23.658684007377047,
2023-07-25 18:19:13.300,1.265244,-12.4390245,0.88414625,-0.07966625,-0.87174975,-0.37985225,11.84425427088485,-23.572589398670974,
2023-07-25 18:19:13.320,3.1707318,-12.97561,0.1707316,-0.0815062,-0.8697877999999999,-0.3775024,12.0056266428087,-23.478403222728097,
2023-07-25 18:19:13.340,5.65548775,-13.50609825,-0.50304875,-0.0833435,-0.8672485,-0.37384025,12.010986501303226,-23.2747306711379,
2023-07-25 18:19:13.360,7.545732,-13.78048825,-0.60975625,-0.0802155,-0.8622894999999999,-0.37207025,11.935162213025851,-23.391400114148976,
2023-07-25 18:19:13.380,9.283536999999999,-13.97865875,-1.28048775,-0.08088675000000001,-0.86515825,-0.36839325,11.965366377962301,-23.02493577660785,
2023-07-25 18:19:13.400,10.0914635,-14.9695125,-1.76829275,-0.0829775,-0.86602775,-0.36189275,12.037134218314076,-22.63490475699645,
2023-07-25 18:19:13.420,10.487805,-16.18902425,-2.8201217499999998,-0.0879975,-0.8588715,-0.35935975,12.288454076620926,-22.6138149654481,
2023-07-25 18:19:13.440,10.8079275,-16.92073225,-2.56097575,-0.08677675,-0.85142525,-0.36738575,12.288199676691825,-23.317550582392474,
2023-07-25 18:19:13.460,10.7774395,-17.057928,-1.4786585,-0.08810425,-0.84931925,-0.36633325,12.449090621861325,-23.256790433852625,
2023-07-25 18:19:13.480,11.25,-17.439025,-0.5487807499999999,-0.09056075,-0.8621672499999999,-0.35517875,12.534390810065625,-22.198971697141403,
2023-07-25 18:19:13.500,13.30792725,-18.323171000000002,-0.9756097499999999,-0.0929565,-0.87583925,-0.34848025,12.6872201450843,-21.537433601771227,
2023-07-25 18:19:13.520,15.65548825,-19.024390500000003,-1.4634145,-0.09414675,-0.86935425,-0.34848025,12.709352599348975,-21.736946545491676,
2023-07-25 18:19:13.540,16.9054885,-19.67987875,-0.5030485,-0.096405,-0.86752325,-0.343689,12.98845704418755,-21.562884801480426,
2023-07-25 18:19:13.560,18.0945125,-21.722561,-0.106707,-0.10490425,-0.878464,-0.31033325,13.268594741330975,-20.1358077945776,
2023-07-25 18:19:13.580,20.884147249999998,-27.2865865,-0.472561,-0.118866,-0.88511675,-0.27255225,13.7819814132199,-18.490241646341726,
2023-07-25 18:19:13.600,25.12195175,-34.29878,-0.320122,-0.12854,-0.87403875,-0.26412975,14.820224009669449,-16.978216496487526,
2023-07-25 18:19:13.620,28.384147249999998,-43.62804975,2.69817075,-0.15101625,-0.8877105,-0.2180175,15.88258528977195,-15.41513160521035,
2023-07-25 18:19:13.640,33.780488500000004,-58.551832250000004,5.060976,-0.1824645,-0.91268925,-0.161209,16.667502983410223,-13.46310863057915,
2023-07-25 18:19:13.660,42.94207375,-76.09756275,3.29268275,-0.207504,-0.9072724999999999,-0.16661075,17.9265226376998,-11.51498491549465,
2023-07-25 18:19:13.680,49.743904199999996,-93.80487980000001,5.1463418,-0.2175414,-0.8955690000000001,-0.1798708,19.907428155730038,-10.54101449316926,
2023-07-25 18:19:13.700,53.094514000000004,-110.9451235,7.56097575,-0.2338255,-0.91590875,-0.15464775,21.290974615174076,-9.219924611620078,
