timestamp [datetime],gyro x [deg/s],gyro y [deg/s],gyro z [deg/s],acceleration x [g],acceleration y [g],acceleration z [g],roll [deg],pitch [deg],yaw [deg]
2023-07-25 18:18:55.520,-0.6707315,-0.7012195,-0.6707315,-0.027588,-0.9327695,0.29425049999999997,7.013991168362555,89.3534596030603,
2023-07-25 18:18:55.540,-0.746951,-0.823171,-0.9756095,-0.0281065,-0.9334565,0.291626,7.03968002041566,88.06034523397003,
2023-07-25 18:18:55.560,-0.8841465,-1.05182925,-1.082317,-0.026764,-0.934082,0.29039000000000004,7.06988298547686,86.33575866692185,
2023-07-25 18:18:55.580,-0.97560975,-1.3109755,-0.97561,-0.02360525,-0.931137,0.2904205,7.09056695363097,84.61173411975035,
2023-07-25 18:18:55.600,-1.08231725,-1.40243875,-0.96036625,-0.022949249999999997,-0.9316255,0.28709399999999996,7.103434957457395,82.88922677913477,
2023-07-25 18:18:55.620,-1.03658525,-1.402439,-0.71646325,-0.022934,-0.93299875,0.28401175,7.117804815391077,81.17271639819117,
2023-07-25 18:18:55.640,-0.97560975,-1.265244,-0.62500025,-0.02214075,-0.9337614999999999,0.284729,7.130339738821207,79.46401872524515,
2023-07-25 18:18:55.660,-0.7317075,-1.082317,-0.68597575,-0.021652249999999998,-0.9328765,0.2838285,7.14634210950711,77.76497283827415,
2023-07-25 18:18:55.680,-0.5335365,-0.9756095,-0.53353675,-0.02206425,-0.93399075,0.2815095,7.163765550460638,76.07943083214252,
2023-07-25 18:18:55.700,-0.152439,-0.91463425,-0.289634,-0.02374275,-0.935547,0.28146375,7.187476940837008,74.40945608611425,
2023-07-25 18:18:55.720,0.289634,-1.05182925,-0.1981705,-0.02384925,-0.93405125,0.284958,7.212481808451373,72.75653986182932,
2023-07-25 18:18:55.740,0.7926832,-1.1829269999999998,0.0365852,-0.0215698,-0.9337524,0.2860106,7.235561819815392,70.92035570422203,
2023-07-25 18:18:55.760,1.1890245,-1.3109755,0.4268295,-0.02417,-0.931534,0.2870175,7.258358654980597,69.1064950858023,
2023-07-25 18:18:55.780,1.46341475,-1.37195125,0.41158525,-0.025985750000000002,-0.93136575,0.2880095,7.285268318166056,67.5126825049015,
2023-07-25 18:18:55.800,1.78353675,-1.25,0.82317075,-0.02688575,-0.92796325,0.2904665,7.31630702173183,65.93561351432245,
2023-07-25 18:18:55.820,1.9359757499999999,-1.4634147499999999,1.08231725,-0.028076,-0.929062,0.29116825,7.353157753489882,64.37463354382965,
2023-07-25 18:18:55.840,1.676829,-1.2957315,1.46341425,-0.02684,-0.93116725,0.2896575,7.391907961660928,62.82311466585355,
2023-07-25 18:18:55.860,1.35670725,-0.7164634999999999,2.08841475,-0.02455125,-0.92817675,0.28698725,7.438735668323965,61.27700648241277,
2023-07-25 18:18:55.880,1.00609775,-0.060975499999999995,2.621951,-0.025222750000000002,-0.92965725,0.28929150000000003,7.502754985693643,59.73546953537313,
2023-07-25 18:18:55.900,0.8993905,0.39634125,2.6067074999999997,-0.02891525,-0.9326325,0.28994775,7.58318438810143,58.201423138955874,
2023-07-25 18:18:55.920,0.9908535,0.45731725,2.0121955,-0.031677250000000004,-0.9326322499999999,0.294159,7.669850440978438,56.68008523181868,
2023-07-25 18:18:55.940,0.777439,0.167683,1.52439025,-0.03331,-0.934082,0.2951355,7.751971893825785,55.16950535872618,
2023-07-25 18:18:55.960,0.45731725,-0.4420735,0.670732,-0.03619375,-0.92964175,0.294998,7.8228260771842955,53.66508183043465,
2023-07-25 18:18:55.980,0.3810975,-0.8993905,0.335366,-0.03665175,-0.9299470000000001,0.29710375,7.88324623358763,52.16842527385367,
2023-07-25 18:18:56.000,0.503049,-1.3414635000000001,0.7164634999999999,-0.0374755,-0.92782575,0.29560825,7.938309639935348,50.685908122544625,
2023-07-25 18:18:56.020,0.45731725,-1.6158535,1.417683,-0.036651500000000004,-0.9273225,0.29220575,7.993239553350485,49.21542673026558,
2023-07-25 18:18:56.040,0.0914635,-1.78353625,1.93597575,-0.039093,-0.928848,0.29068,8.060098268522182,47.75184667579138,
2023-07-25 18:18:56.060,-0.25914625,-1.920732,1.890244,-0.040802,-0.93165575,0.29060375,8.131059017840657,46.29220802744065,
2023-07-25 18:18:56.080,-0.09146325,-1.920732,1.72256075,-0.038437,-0.9345855,0.28771975,8.199929130572457,44.8427772166068,
2023-07-25 18:18:56.100,0.304878,-1.6310975,0.8993905,-0.0383455,-0.9350737499999999,0.286087,8.255216982717174,43.41100427887717,
2023-07-25 18:18:56.120,0.7012197499999999,-1.05182925,0.2591465,-0.03796375,-0.9359435,0.28768925,8.306383026087312,41.99774117300485,
2023-07-25 18:18:56.140,1.25,-0.5335365,-0.35060975,-0.0374605,-0.93730125,0.2895355,8.35371196906995,40.60493332883382,
2023-07-25 18:18:56.160,1.5731705999999999,-0.3292684,-0.890244,-0.041076800000000004,-0.9319580000000001,0.293103,8.412767069989275,39.0609911854369,
2023-07-25 18:18:56.180,1.75304875,-0.487805,-0.92987825,-0.0404355,-0.92890925,0.29791275,8.470869293674673,37.536185214011425,
2023-07-25 18:18:56.200,1.402439,-0.97560975,-0.80792675,-0.044311500000000004,-0.92594925,0.29806525,8.529735390478749,36.1896064569724,
2023-07-25 18:18:56.220,0.945122,-1.1890245,-0.487805,-0.04081725,-0.92692575,0.29600525,8.584509757926071,34.8453063219808,
2023-07-25 18:18:56.240,0.640244,-1.2195125,-0.2286585,-0.04054275,-0.92825325,0.2957,8.63583691404891,33.50314945918392,
2023-07-25 18:18:56.260,0.44207325,-1.32621925,-0.21341475,-0.04173275,-0.9302675,0.29808049999999997,8.692576133412942,32.1671268909382,
2023-07-25 18:18:56.280,0.457317,-1.356707,-0.41158525,-0.04307575,-0.92916875,0.29376225,8.754736763446793,30.84009092360035,
2023-07-25 18:18:56.300,0.24390225,-1.03658525,-0.64024425,-0.039734,-0.93067925,0.29344175,8.801220069458568,29.51934905993145,
2023-07-25 18:18:56.320,0.15243925,-0.7317075,-0.86890275,-0.0384675,-0.9293825,0.29370125,8.84045347143477,28.205853223812674,
2023-07-25 18:18:56.340,-0.22865850000000001,-0.51829275,-0.960366,-0.0365905,-0.9304045,0.29194675000000003,8.8621540063952,26.895732237299775,
2023-07-25 18:18:56.360,-0.60975625,-0.39634175,-0.97561,-0.038406499999999996,-0.930191,0.2920075,8.89950806521073,25.587124561980776,
2023-07-25 18:18:56.380,-0.823171,-0.45731725,-0.89939025,-0.037201,-0.93229675,0.29451,8.9273866256258,24.28255306238445,
2023-07-25 18:18:56.400,-0.807927,-0.640244,-0.807927,-0.03746,-0.93077075,0.2905885,8.966804924666576,22.98603244690355,
2023-07-25 18:18:56.420,-0.5792682499999999,-0.88414625,-0.670732,-0.0361635,-0.930008,0.2912445,8.984983255645382,21.702254371606575,
2023-07-25 18:18:56.440,-0.106707,-1.12804875,-0.3963415,-0.03715525,-0.93188475,0.2928775,9.027130686350201,20.435466493152823,
2023-07-25 18:18:56.460,0.503049,-1.37195125,-0.2439025,-0.037735,-0.9309845,0.29267899999999997,9.094583285557812,19.1907901559556,
2023-07-25 18:18:56.480,0.96036575,-1.53963425,-0.0762195,-0.03758225,-0.9307865,0.29298375,9.16442789767131,17.977687813716052,
2023-07-25 18:18:56.500,1.26524375,-1.89024375,0.0,-0.0378725,-0.9323885,0.29499825,9.325793659872742,17.500225480331,
2023-07-25 18:18:56.520,1.402439,-2.057927,-0.04573175,-0.04020675,-0.9289705,0.29493725,9.488536754695328,17.5650447097255,
2023-07-25 18:18:56.540,1.44817075,-1.9969512500000002,0.0,-0.041519,-0.928955,0.295883,9.36790257370347,17.65744251852785,
2023-07-25 18:18:56.560,1.390244,-2.0121952,0.0487806,-0.037634,-0.928015,0.2946534,9.302092532591047,17.65966186511622,
2023-07-25 18:18:56.580,1.21951225,-1.7530485,-0.06097575,-0.040604,-0.9284365,0.29629525,9.403397346228608,17.7780864168119,
2023-07-25 18:18:56.600,0.792683,-1.539634,-0.19817075,-0.040389999999999995,-0.929062,0.29551675,9.264136079198224,17.66044296651365,
2023-07-25 18:18:56.620,0.3963415,-1.50914625,-0.45731725,-0.0419465,-0.92643725,0.29611225,9.546282177131587,17.725079094596126,
2023-07-25 18:18:56.640,0.04573175,-1.234756,-0.457317,-0.042526499999999995,-0.9275055,0.29634099999999997,9.470274148786203,17.68703906583005,
2023-07-25 18:18:56.660,-0.24390225,-1.0213412499999999,-0.50304875,-0.041565,-0.93084725,0.294724,9.373086675879188,17.6345015157606,
2023-07-25 18:18:56.680,-0.335366,-0.945122,-0.487805,-0.04028325,-0.92921425,0.2957155,9.375080524305336,17.659661701423424,
2023-07-25 18:18:56.700,-0.3963415,-0.9146345,-0.5030487499999999,-0.0397035,-0.9288025,0.29544075000000003,9.340902561345331,17.623266068124575,
2023-07-25 18:18:56.720,-0.35060975,-0.67073175,-0.42682925,-0.04125975,-0.93191525,0.29380775000000003,9.457857269518119,17.503286217015425,
2023-07-25 18:18:56.740,-0.38109775,-0.67073175,-0.472561,-0.040161,-0.92851275,0.29518125,9.4139871655481,17.661711534797575,
2023-07-25 18:18:56.760,0.030488,-0.60975625,-0.487805,-0.039123500000000005,-0.93064875,0.29566925,9.23888519278082,17.653544937979426,
2023-07-25 18:18:56.780,0.0914635,-0.503049,-0.44207325,-0.040878250000000005,-0.9306030000000001,0.29237375,9.382086543096534,17.4035521429145,
2023-07-25 18:18:56.800,-0.152439,-0.152439,-0.39634125,-0.04022225,-0.93119825,0.2875215,9.334417321083766,17.128358575469576,
2023-07-25 18:18:56.820,-0.47256125,0.1981705,-0.472561,-0.03915425,-0.9308625,0.288483,9.316545885944958,17.14679617901285,
2023-07-25 18:18:56.840,-0.4115855,0.38109775,-0.80792675,-0.03927625,-0.927994,0.2890015,9.274608015002498,17.3163813191167,
2023-07-25 18:18:56.860,-0.09146325,0.5487807499999999,-0.8384145,-0.0411985,-0.93003825,0.28973375,9.409378400682678,17.336199963927626,
2023-07-25 18:18:56.880,0.51829275,0.64024375,-0.8993905,-0.041641250000000005,-0.93084725,0.29200750000000003,9.536095759361915,17.4527207143462,
2023-07-25 18:18:56.900,0.96036575,0.67073175,-0.97561,-0.04147325,-0.93330375,0.29246525,9.482452873560868,17.465572040766524,
2023-07-25 18:18:56.920,1.265244,0.67073175,-0.97560975,-0.04144275,-0.93248,0.292511,9.490253638396483,17.398024085153974,
2023-07-25 18:18:56.940,1.44817075,0.7621955,-0.91463425,-0.04202275,-0.93014525,0.29313675,9.44906598532292,17.487465739676125,
2023-07-25 18:18:56.960,1.29573175,1.1890245,-0.8689025,-0.04045125,-0.9306795,0.29249575,9.353162050496273,17.395840219451074,
2023-07-25 18:18:56.980,0.9390243999999999,1.6463414,-0.9024391999999999,-0.040393200000000004,-0.9314332000000001,0.292273,9.360391783236002,17.453629338700118,
2023-07-25 18:18:57.000,0.73170725,2.057927,-1.5091465,-0.0418855,-0.9318235,0.2953795,9.486837196271232,17.5080767624096,
2023-07-25 18:18:57.020,0.68597575,2.347561,-1.9207317499999998,-0.043472,-0.928589,0.29512025,9.51923265580946,17.661560288794398,
2023-07-25 18:18:57.040,0.7317075,2.652439,-1.9664635000000001,-0.04467775,-0.92942825,0.29400624999999997,9.567911374756825,17.569752896837525,
2023-07-25 18:18:57.060,0.8384149999999999,3.125,-2.07317075,-0.04243475,-0.92861925,0.293991,9.560671134767837,17.6277342238803,
2023-07-25 18:18:57.080,0.92987825,3.125,-1.9664635,-0.04373175,-0.9283445,0.29646275,9.55809291002492,17.7026364648428,
2023-07-25 18:18:57.100,0.96036575,2.942073,-2.164634,-0.0421295,-0.93173225,0.29849225,9.40690527111831,17.781263884573725,
2023-07-25 18:18:57.120,1.097561,2.4237805,-2.36280475,-0.044082750000000004,-0.9336395,0.2996975,9.623423247486006,17.851809265644626,
2023-07-25 18:18:57.140,1.3262195,2.362805,-2.68292675,-0.04315175,-0.93240375,0.295883,9.52735028098104,17.626134722317524,
2023-07-25 18:18:57.160,1.52439025,2.621951,-2.820122,-0.0404815,-0.931442,0.292404,9.435374695679908,17.41556248360925,
2023-07-25 18:18:57.180,1.67682925,3.32317075,-3.07926825,-0.039703249999999995,-0.9343567500000001,0.2891845,9.327063056101803,17.1337977020601,
2023-07-25 18:18:57.200,2.0426830000000002,4.222561,-3.3079270000000003,-0.03715525,-0.9349215,0.2887115,9.121669390293803,17.1698129316321,
2023-07-25 18:18:57.220,2.652439,5.5182927500000005,-3.88719525,-0.03372175,-0.9373015,0.2875975,8.933362659556343,17.03181479731655,
2023-07-25 18:18:57.240,3.9176832499999996,7.92682925,-4.878049,-0.032364,-0.93766775,0.27557375,9.068174109611306,16.60904630681515,
2023-07-25 18:18:57.260,5.36585375,12.22560975,-5.92987775,-0.02816775,-0.941559,0.260849,8.675687919436733,15.55326126364085,
2023-07-25 18:18:57.280,6.70731725,18.36890275,-7.40853675,-0.02275075,-0.94865425,0.252441,8.372056716146695,14.803809351490726,
2023-07-25 18:18:57.300,8.85670725,25.80792775,-10.65548775,-0.01811225,-0.9562835000000001,0.23577875,8.039639248381782,13.9339671643067,
2023-07-25 18:18:57.320,11.1890245,34.9390255,-14.3597565,-0.014068750000000001,-0.9587399999999999,0.22973625,7.657303199648915,13.532487932549826,
2023-07-25 18:18:57.340,12.271341750000001,44.64939225,-18.1554885,-0.0159455,-0.95478825,0.235916,7.93056754083981,13.984741570693226,
2023-07-25 18:18:57.360,12.5914635,53.414634750000005,-22.3628055,-0.01927175,-0.95263675,0.24694824999999998,8.049132046972016,14.631625170059749,
2023-07-25 18:18:57.380,12.21036625,60.975611,-26.02134225,-0.02406325,-0.94677725,0.258362,8.347670586639822,15.368669049321,
2023-07-25 18:18:57.400,10.7073172,68.08536699999999,-29.8658546,-0.023657,-0.9427736,0.2640382,8.33432697290202,15.714223247820001,
2023-07-25 18:18:57.420,9.740854,74.02439325,-32.85061125,-0.0277555,-0.94093325,0.28440875,8.51306641056929,16.830842276894526,
2023-07-25 18:18:57.440,10.838415000000001,77.2256105,-34.725609750000004,-0.0295715,-0.930252,0.2957305,8.66280831990664,17.5611065984899,
2023-07-25 18:18:57.460,11.478658750000001,78.35365900000001,-35.579269249999996,-0.0336915,-0.9238895,0.31700125,8.952135988299744,18.902148442449427,
2023-07-25 18:18:57.480,11.844512250000001,77.17988224999999,-34.435977,-0.035599,-0.914551,0.33760075,9.083493355369916,20.223280604589,
2023-07-25 18:18:57.500,12.362805,73.78048875,-32.591464,-0.036148,-0.9019775,0.36055,9.096151840326172,21.632896066694375,
2023-07-25 18:18:57.520,11.72256125,68.429878,-29.69512275,-0.035583500000000004,-0.8963777500000001,0.37504550000000003,9.058185351800972,22.734625123283774,
2023-07-25 18:18:57.540,10.15243975,62.10365975,-25.838415,-0.03192125,-0.8941345,0.38468925,8.882934543693816,23.295030271383077,
2023-07-25 18:18:57.560,8.612805,54.6036595,-22.240854249999998,-0.0344085,-0.8926545,0.39566025,9.009205926132669,23.93000652910345,
2023-07-25 18:18:57.580,6.8445124999999996,46.17378125,-18.70426825,-0.031006,-0.8900297500000001,0.3977815,8.818307313874705,24.111246007505827,
2023-07-25 18:18:57.600,5.00000025,37.39329325,-15.21341475,-0.028412,-0.891327,0.401108,8.727217388484405,24.244707609311273,
2023-07-25 18:18:57.620,3.61280475,28.99390325,-12.21036625,-0.02400225,-0.89352425,0.39798,8.34107976440029,24.000945724710974,
2023-07-25 18:18:57.640,2.54573175,21.341464000000002,-8.47561,-0.02182025,-0.89247125,0.39022825,8.262625582030953,23.561449903815827,
2023-07-25 18:18:57.660,1.29573175,14.573171,-4.86280525,-0.017669499999999998,-0.8945620000000001,0.38438425,7.960496826455328,23.227007459585923,
2023-07-25 18:18:57.680,0.457317,8.56707325,-1.8292685,-0.01351925,-0.90237425,0.375824,7.797086303944545,22.617328627744225,
2023-07-25 18:18:57.700,0.24390225,4.0396339999999995,0.503049,-0.01084925,-0.9102785,0.3663635,7.631791262515143,21.911782341152875,
2023-07-25 18:18:57.720,0.65548775,1.2500002499999998,1.8140245,-0.010696500000000001,-0.916153,0.351837,7.546668458353163,21.0615072027692,
2023-07-25 18:18:57.740,1.03658525,0.22865850000000001,2.39329275,-0.0076445,-0.9169922500000001,0.33833325,7.454262776616638,20.20705181236745,
2023-07-25 18:18:57.760,1.6158535,0.33536575,2.347561,-0.01005575,-0.92102025,0.33351149999999996,7.710279786486645,19.958911391321525,
2023-07-25 18:18:57.780,2.2713415,1.0213415000000001,2.2713415,-0.010711749999999999,-0.91816725,0.33152750000000003,7.663354799055457,19.90165120502735,
2023-07-25 18:18:57.800,2.5121952,1.9756095999999999,2.1097562,-0.012512400000000002,-0.9197754,0.3348268,7.877391486664831,20.02044340609068,
2023-07-25 18:18:57.820,2.66768275,2.69817075,2.30182925,-0.0158845,-0.9172055,0.34136974999999997,7.9927996855743455,20.465074539382226,
2023-07-25 18:18:57.840,2.3323169999999998,2.24085375,2.19512175,-0.017517249999999998,-0.91729725,0.34867875000000004,8.09181403593788,20.789442190599498,
2023-07-25 18:18:57.860,1.7835364999999999,1.05182925,2.164634,-0.024261249999999998,-0.9190827500000001,0.353317,8.331780479066397,21.015442318331825,
2023-07-25 18:18:57.880,1.06707325,-0.21341475,1.8140245,-0.023178249999999997,-0.9157102500000001,0.35566725,8.409526773332837,21.284045306243748,
2023-07-25 18:18:57.900,0.47256125,-1.55487825,1.52439025,-0.02482625,-0.91448975,0.35263049999999996,8.410765907692955,21.037832866889126,
2023-07-25 18:18:57.920,0.19817075,-2.27134175,1.402439,-0.0214845,-0.91471875,0.347458,8.15349921524706,20.7227939151855,
2023-07-25 18:18:57.940,0.0457315,-2.42378025,1.53963425,-0.019821,-0.91589375,0.34497075,8.172940111257345,20.5990972648543,
2023-07-25 18:18:57.960,0.0,-2.31707325,1.8140245,-0.019546749999999998,-0.915573,0.342987,8.15705009556341,20.549023385800552,
2023-07-25 18:18:57.980,-0.27439,-2.22561,1.7682927499999999,-0.0197905,-0.91967775,0.345886,8.026790084247601,20.61934008736055,
2023-07-25 18:18:58.000,-0.655488,-2.637195,1.63109725,-0.01947,-0.91912825,0.34800725,8.177630401548727,20.7416838229149,
2023-07-25 18:18:58.020,-0.82317075,-3.2164635,1.539634,-0.021575749999999998,-0.91487125,0.34948725,8.234140174672113,21.0015131966336,
2023-07-25 18:18:58.040,-1.082317,-3.94817075,1.76829275,-0.02195725,-0.9141235,0.348648,8.351018118453712,20.865793650445173,
2023-07-25 18:18:58.060,-1.17378075,-4.527439,2.08841475,-0.022171,-0.9151,0.34745775,8.208293085570766,20.74586687283965,
2023-07-25 18:18:58.080,-0.929878,-4.8628047500000005,2.362805,-0.0232545,-0.916153,0.347519,8.471121415726495,20.6363519473124,
2023-07-25 18:18:58.100,-0.67073175,-4.954268,2.652439,-0.0200195,-0.91374225,0.34367375,8.114468230505112,20.5949478059039,
2023-07-25 18:18:58.120,-0.36585375,-4.695122,2.78963425,-0.0193635,-0.9151152499999999,0.341995,8.225787763671384,20.44650980162195,
2023-07-25 18:18:58.140,-0.3963415,-4.344512,2.4237805,-0.021774250000000002,-0.92002875,0.34123225,8.218891110227872,20.339928139663,
2023-07-25 18:18:58.160,-0.48780475,-3.94817075,1.7835364999999999,-0.023285,-0.92283625,0.33981325,8.294509301174955,20.189503876850623,
2023-07-25 18:18:58.180,-0.7012197499999999,-3.3993902499999997,1.219512,-0.025238,-0.922119,0.33988975,8.503524440947011,20.2611973050511,
2023-07-25 18:18:58.200,-0.823171,-2.89634125,0.503049,-0.0239105,-0.921219,0.34133925,8.469788624822584,20.3578036575934,
2023-07-25 18:18:58.220,-0.7804876000000001,-2.5365854,-0.28048799999999996,-0.0251708,-0.919458,0.34262699999999996,8.49157262497708,20.39978349329332,
2023-07-25 18:18:58.240,-0.7317075,-2.1646342499999998,-0.68597575,-0.02565025,-0.91752625,0.33999650000000003,8.414328903261499,20.277090860521,
2023-07-25 18:18:58.260,-0.503049,-1.69207325,-0.792683,-0.023819,-0.915283,0.34054575,8.356725453356598,20.452824178186077,
2023-07-25 18:18:58.280,-0.18292675,-1.402439,-0.5487807499999999,-0.02568075,-0.913986,0.34098825,8.476151182913258,20.438152736530526,
2023-07-25 18:18:58.300,-0.335366,-1.3262195,-0.518293,-0.02328475,-0.91987625,0.33857725,8.405570549072294,20.21836733775085,
2023-07-25 18:18:58.320,-0.8536587499999999,-1.265244,-0.640244,-0.02600125,-0.92265325,0.337845,8.592155952235153,20.102192798276175,
2023-07-25 18:18:58.340,-1.25,-1.554878,-0.777439,-0.0231475,-0.919815,0.33964525,8.398194725577916,20.2374793083517,
2023-07-25 18:18:58.360,-1.1432925,-1.7682925,-0.777439,-0.02360525,-0.9177095,0.33816525,8.313645259816461,20.247852744652924,
2023-07-25 18:18:58.380,-0.914634,-1.81402425,-0.32012175,-0.02253725,-0.91467275,0.33744799999999997,8.30342622387294,20.241036966331848,
2023-07-25 18:18:58.400,-0.36585375,-1.82926825,0.015244000000000008,-0.024109,-0.92018125,0.33995075,8.409583080239749,20.2378213058705,
2023-07-25 18:18:58.420,0.152439,-1.96646375,0.625,-0.026184,-0.915222,0.341339,8.425752162306063,20.40649632832635,
2023-07-25 18:18:58.440,0.39634125,-2.4542685,0.5640244999999999,-0.02705375,-0.91693125,0.34394825,8.587238497738557,20.561559025365973,
2023-07-25 18:18:58.460,0.5792685,-2.9573169999999998,0.64024375,-0.026611000000000003,-0.9191285,0.3446655,8.69233815756235,20.585456392328574,
2023-07-25 18:18:58.480,0.35061,-3.2774389999999998,0.335366,-0.0263825,-0.92039525,0.34146125,8.535948592276355,20.335274067592174,
2023-07-25 18:18:58.500,-0.335366,-3.10975625,0.13719525,-0.024841250000000002,-0.9185485,0.3379365,8.326017809132212,20.198583862701824,
2023-07-25 18:18:58.520,-0.807927,-2.5000002500000003,0.0914635,-0.024993750000000002,-0.91658,0.336441,8.590878239788907,20.1832457785845,
2023-07-25 18:18:58.540,-1.0060975,-1.95121975,0.01524375,-0.02442925,-0.9207155,0.338623,8.376607392598302,20.1265405612819,
2023-07-25 18:18:58.560,-1.41768275,-1.81402425,-0.33536575,-0.0273895,-0.923477,0.33869925,8.56132018271697,20.15176773822055,
2023-07-25 18:18:58.580,-1.52439025,-1.7378049999999998,-0.8231707500000001,-0.02571125,-0.91720575,0.33667,8.432743187065753,20.116032320083676,
2023-07-25 18:18:58.600,-1.34146325,-1.554878,-1.06707325,-0.02392575,-0.91900625,0.336258,8.444349910160746,20.1237560783099,
2023-07-25 18:18:58.620,-0.9390246,-1.2195122,-1.097561,-0.022106999999999998,-0.9210328000000001,0.33426520000000004,8.265329343362307,19.897151393559778,
2023-07-25 18:18:58.640,-0.68597575,-1.097561,-1.402439,-0.02415475,-0.9206545,0.33403,8.51598193061379,19.935438783639526,
2023-07-25 18:18:58.660,-0.503049,-1.06707325,-1.4939022499999999,-0.02346825,-0.919403,0.33216875,8.408218050731785,19.865131322906425,
2023-07-25 18:18:58.680,-0.487805,-1.09756125,-1.3109755,-0.02429225,-0.919876,0.33474725,8.388798043979635,19.948146839101824,
2023-07-25 18:18:58.700,-0.19817075,-1.1890245,-1.00609775,-0.0237425,-0.91992175,0.33630350000000003,8.606509114642137,20.153781531592276,
2023-07-25 18:18:58.720,-0.25914625,-1.265244,-0.8689024999999999,-0.02511625,-0.91708375,0.33613625,8.477078953899714,20.0389723326761,
2023-07-25 18:18:58.740,-0.12195125000000001,-1.23475625,-0.503049,-0.023407,-0.917572,0.33609025000000003,8.237438539688753,20.098733446032576,
2023-07-25 18:18:58.760,0.0,-1.387195,-0.625,-0.02519225,-0.921234,0.3374635,8.470302289284657,20.1759983026996,
2023-07-25 18:18:58.780,2.5000000000025e-07,-1.41768275,-0.807927,-0.0243835,-0.91897575,0.338394,8.36917997936321,20.21807413409255,
2023-07-25 18:18:58.800,0.04573175,-1.50914625,-0.6859755,-0.024459750000000002,-0.91758725,0.33660925,8.391380261261851,20.117229052700726,
2023-07-25 18:18:58.820,0.0,-1.554878,-0.60975625,-0.0252075,-0.919815,0.3377075,8.542487454745492,20.043956902682673,
2023-07-25 18:18:58.840,-0.152439,-1.6615855,-0.91463425,-0.02297975,-0.9224855000000001,0.33638,8.334052274589437,19.997009066712476,
2023-07-25 18:18:58.860,-0.4115855,-1.890244,-1.05182925,-0.02468875,-0.921356,0.33566275,8.510116022425365,20.0636592490464,
2023-07-25 18:18:58.880,-0.71646325,-1.890244,-1.1737805,-0.02291875,-0.919388,0.3343505,8.330114194485386,19.946218384334223,
2023-07-25 18:18:58.900,-0.89939025,-1.890244,-1.21951225,-0.02256775,-0.92266875,0.3354645,8.32354373819436,19.96463839800865,
2023-07-25 18:18:58.920,-0.8841465,-1.73780475,-1.1585365,-0.022659,-0.921921,0.3304595,8.251063298518035,19.72637917550485,
2023-07-25 18:18:58.940,-0.76219525,-1.6158535,-1.1737805,-0.021408,-0.92109675,0.33052075000000003,8.257611335847317,19.8096002187214,
2023-07-25 18:18:58.960,-0.44207325,-1.55487825,-1.2042685,-0.02120975,-0.92118825,0.330658,8.17644729933928,19.7761180183064,
2023-07-25 18:18:58.980,-0.04573175,-1.6006095,-1.08231725,-0.02209475,-0.92228675,0.333374,8.23493612026392,19.911967169945598,
2023-07-25 18:18:59.000,0.289634,-1.6768290000000001,-1.05182925,-0.022995,-0.924759,0.333191,8.427101524257672,19.8311298692636,
2023-07-25 18:18:59.020,0.67073175,-1.7987805,-0.91463425,-0.02105725,-0.9222715,0.33212275,8.388744757459499,19.944404609034102,
2023-07-25 18:18:59.040,1.207317,-1.8170732,-0.6463414000000001,-0.022619800000000002,-0.9193972,0.3344728,8.272688088653883,20.02993355807688,
2023-07-25 18:18:59.060,1.2804875,-2.07317075,-0.74695125,-0.023941,-0.92117325,0.33776849999999997,8.343337187418513,20.15833986568465,
2023-07-25 18:18:59.080,1.3414635000000001,-2.68292675,-1.00609775,-0.02244575,-0.92041025,0.33906575,8.275997504001882,20.2232183480425,
2023-07-25 18:18:59.100,1.3719510000000001,-3.0030485,-1.03658525,-0.01980575,-0.9162902500000001,0.3392945,8.208134867006429,20.313874483358276,
2023-07-25 18:18:59.120,1.38719525,-3.2164635,-0.5487807499999999,-0.020538,-0.91752625,0.33786,8.114341504631428,20.233326274768352,
2023-07-25 18:18:59.140,0.92987825,-3.125,-0.25914625,-0.01972975,-0.9221955000000001,0.33491525,8.19049341603736,19.927113389954826,
2023-07-25 18:18:59.160,0.3810975,-3.0030487499999996,-0.67073175,-0.01814275,-0.9231415000000001,0.3323975,8.100022712275603,19.8077750734517,
2023-07-25 18:18:59.180,-0.12195125000000001,-2.7743902499999997,-1.29573175,-0.01643375,-0.9233095,0.331787,7.837023268416453,19.74997944321525,
2023-07-25 18:18:59.200,-0.25914625,-2.71341475,-1.6310975,-0.01612875,-0.9212035,0.33105475,7.907066695148267,19.735854668291474,
2023-07-25 18:18:59.220,0.12195125,-2.36280475,-1.66158525,-0.01800525,-0.92306525,0.3321535,8.054717347206962,19.829715737605227,
2023-07-25 18:18:59.240,0.762195,-2.210366,-1.73780475,-0.01863075,-0.92102025,0.33488474999999995,8.06105312704288,19.948015401862623,
2023-07-25 18:18:59.260,1.234756,-2.195122,-1.539634,-0.0167695,-0.9176635,0.33958425000000003,7.991336430348005,20.3768379086969,
2023-07-25 18:18:59.280,1.57012175,-2.2865855,-1.3414635,-0.01708975,-0.916351,0.340271,7.86537443050264,20.399187323685624,
2023-07-25 18:18:59.300,1.5243902500000002,-2.3932925000000003,-0.97561,-0.01660175,-0.91761775,0.3410645,7.935687698401067,20.4015069353974,
2023-07-25 18:18:59.320,1.18902425,-2.57621975,-0.7164635,-0.017593499999999998,-0.9168397500000001,0.341507,7.991218113078155,20.404085681212273,
2023-07-25 18:18:59.340,0.8079270000000001,-2.4542685,-0.42682925,-0.01605225,-0.91519175,0.33953849999999997,8.026052768049123,20.4188181028859,
2023-07-25 18:18:59.360,0.73170725,-2.37804875,-0.09146325,-0.0167845,-0.91468825,0.341263,8.059916552718335,20.51559092595445,
2023-07-25 18:18:59.380,0.60975625,-2.317073,-0.12195125000000001,-0.01731875,-0.91790775,0.34228525,8.001090058988854,20.45436439585635,
2023-07-25 18:18:59.400,0.32012175,-2.2865855,-0.19817075,-0.0193635,-0.91842625,0.34138475,8.136654894863131,20.359964006359775,
2023-07-25 18:18:59.420,0.015244,-2.378049,-0.48780524999999997,-0.019638,-0.91743475,0.34371975,8.135412626079287,20.511342578655626,
2023-07-25 18:18:59.440,-0.44207325,-2.62195125,-0.8689024999999999,-0.018616,-0.917206,0.34420775,8.10792156358066,20.62523134005835,
2023-07-25 18:18:59.460,-0.9756098,-2.792683,-1.1707314,-0.0168212,-0.9200804,0.34108900000000003,7.970389246067867,20.31848851299396,
2023-07-25 18:18:59.480,-1.5091465,-2.9573169999999998,-1.4786584999999999,-0.0162355,-0.9210205,0.33859275,7.94262188505504,20.177009070141423,
2023-07-25 18:18:59.500,-1.7378049999999998,-3.03353625,-1.570122,-0.01493825,-0.91983025,0.33828725,7.851895571240462,20.168782332226023,
2023-07-25 18:18:59.520,-1.82926825,-2.94207325,-1.75304875,-0.010787999999999999,-0.920105,0.335617,7.571034075256385,20.118307705054775,
2023-07-25 18:18:59.540,-1.67682925,-2.92682925,-1.371951,-0.014984250000000001,-0.91938775,0.33450325000000003,7.776218124878557,19.962115798265323,
2023-07-25 18:18:59.560,-1.3414635,-2.835366,-1.0518295,-0.0114135,-0.9208222500000001,0.33464025,7.6075085557586375,20.014396236537024,
2023-07-25 18:18:59.580,-0.77743925,-2.789634,-0.640244,-0.01217625,-0.92050175,0.33427425,7.676031595482742,19.942239482280876,
2023-07-25 18:18:59.600,-0.3658535,-2.835366,-0.35060975,-0.012054500000000001,-0.9179995,0.33544925000000003,7.6937316936434925,20.050546494413574,
2023-07-25 18:18:59.620,-0.22865825,-3.0640245,0.0609755,-0.01383975,-0.9186705,0.336685,7.752989217487023,20.0729169146014,
2023-07-25 18:18:59.640,-0.1829265,-3.4146342499999998,0.2591465,-0.012878500000000001,-0.92094425,0.33856175,7.778783941755197,20.218098739099375,
2023-07-25 18:18:59.660,-0.335366,-3.9939025,0.27439025,-0.015136750000000001,-0.9201205,0.3382265,7.827774716700833,20.18228835711565,
2023-07-25 18:18:59.680,-0.5335365,-4.420732,0.5335365,-0.016266,-0.920334,0.337265,7.956534107304925,20.103038206130876,
2023-07-25 18:18:59.700,-0.5640244999999999,-4.9085365,0.7469515,-0.01435825,-0.9186095,0.33709725,7.908928793400804,20.162623849563573,
2023-07-25 18:18:59.720,-0.6097565,-5.35060975,1.0365855,-0.015564000000000001,-0.91908275,0.33741775,7.845989107492972,20.257823053549,
2023-07-25 18:18:59.740,-0.8689024999999999,-5.9603660000000005,1.1890245,-0.01554875,-0.92103575,0.339218,7.839411453031312,20.236953305047876,
2023-07-25 18:18:59.760,-0.92987825,-6.6310975,1.11280475,-0.0168455,-0.922226,0.33696,8.054064540859464,20.017793245070024,
2023-07-25 18:18:59.780,-1.09756125,-6.99695125,1.1890245,-0.01680025,-0.91922,0.33732625,7.9864179415578125,20.169088112201273,
2023-07-25 18:18:59.800,-1.38719525,-7.347561,1.402439,-0.015365750000000001,-0.9180755,0.33575425000000003,7.97185407489149,20.1431980774066,
2023-07-25 18:18:59.820,-1.70731675,-7.5,1.73780475,-0.01539625,-0.9182435,0.3334045,7.865930593176399,19.973181257639474,
2023-07-25 18:18:59.840,-2.0426830000000002,-7.57621975,2.08841475,-0.01654075,-0.9191739999999999,0.33477775,7.870998029454155,19.947764249814426,
2023-07-25 18:18:59.860,-1.9756098000000002,-7.8536586,2.2560978,-0.01532,-0.9187744,0.332483,7.925949993053118,19.906244263950377,
2023-07-25 18:18:59.880,-1.57012175,-7.957317,2.30182925,-0.016571000000000002,-0.9216005,0.33320625000000004,7.879127456398157,19.816276027603173,
2023-07-25 18:18:59.900,-1.35670725,-7.9268295,2.2256097500000003,-0.01358025,-0.9226075,0.33145125,7.7294866824007755,19.744720818340248,
2023-07-25 18:18:59.920,-1.09756075,-7.7743905,2.36280475,-0.014312749999999999,-0.9235534999999999,0.32785025,7.8879983605438895,19.503258525491226,
2023-07-25 18:18:59.940,-1.0670730000000002,-7.50000025,2.1798782500000002,-0.015350250000000001,-0.924957,0.3302,7.927317984841743,19.631746661784447,
2023-07-25 18:18:59.960,-0.88414625,-7.22561,1.85975625,-0.01643375,-0.92340075,0.3288725,7.88754875192123,19.550780058061548,
2023-07-25 18:18:59.980,-0.68597575,-6.981707500000001,1.539634,-0.013733,-0.92419425,0.327423,7.67481335584631,19.499284961984227,
2023-07-25 18:19:00.000,-0.7469515,-6.76829275,1.1890245,-0.01507575,-0.92504875,0.32853699999999997,7.880898889780617,19.543812083615475,
2023-07-25 18:19:00.020,-0.929878,-6.615853749999999,0.9146340000000001,-0.013672,-0.92157,0.329132,7.797881725472933,19.6771230470581,
2023-07-25 18:19:00.040,-0.746951,-6.5091465,1.0060975,-0.0131225,-0.919754,0.330185,7.76828213125033,19.86862594346075,
2023-07-25 18:19:00.060,-0.73170725,-6.112805,1.3262195,-0.01306125,-0.92141725,0.32641624999999996,7.7514129943409396,19.457699945896323,
2023-07-25 18:19:00.080,-1.05182925,-5.6859755,1.6158537499999999,-0.01365675,-0.92186,0.3234405,7.827409980815852,19.33744058715265,
2023-07-25 18:19:00.100,-1.4634144999999998,-5.1676832500000005,1.7682924999999998,-0.01490775,-0.9221495,0.32519525000000005,7.904109477362582,19.394292319025375,
2023-07-25 18:19:00.120,-1.722561,-4.96951225,1.69207325,-0.01654075,-0.9213715,0.32566825,7.993250563700875,19.467039116668502,
2023-07-25 18:19:00.140,-1.7987805,-5.12195125,1.5091465,-0.016403,-0.9235535,0.329208,7.945719487583077,19.59990314387375,
2023-07-25 18:19:00.160,-1.6310975,-5.3963415,1.47865825,-0.02026375,-0.922516,0.32775875,8.137708435881741,19.5623702033456,
2023-07-25 18:19:00.180,-1.29573175,-5.48780475,1.5091462500000001,-0.017334000000000002,-0.92237875,0.326172,8.069272258646123,19.462895226873325,
2023-07-25 18:19:00.200,-0.8536585,-5.5792684999999995,1.67682925,-0.017440749999999998,-0.9223175,0.32856725,7.99075777959434,19.663992758612725,
2023-07-25 18:19:00.220,-0.5182925,-5.792683,1.84451225,-0.01722725,-0.9218905,0.32832325,7.938133375797377,19.6115426139069,
2023-07-25 18:19:00.240,-0.3658535,-5.807927,2.012195,-0.01814275,-0.92454525,0.3283235,8.041647003712315,19.5968217127493,
2023-07-25 18:19:00.260,-0.32012175,-5.807927,2.25609775,-0.0196535,-0.922409,0.32633999999999996,8.223597900211033,19.429498614388677,
2023-07-25 18:19:00.280,-0.5243903999999999,-5.6341462,2.3536586,-0.0184936,-0.9231567999999999,0.3235718,8.096085605466673,19.42340582786228,
2023-07-25 18:19:00.300,-0.5640244999999999,-5.5640245,2.62195125,-0.02041625,-0.92065425,0.32405100000000003,8.194203239359737,19.42285396193785,
2023-07-25 18:19:00.320,-0.59451225,-5.5487804999999994,2.7896342499999998,-0.02230825,-0.92233275,0.326538,8.250609598490685,19.574482541511426,
2023-07-25 18:19:00.340,-0.8841465,-5.7469515,2.66768275,-0.0226895,-0.9216154999999999,0.32626325,8.341161567028507,19.516029522432277,
2023-07-25 18:19:00.360,-1.0060975,-5.990853749999999,2.820122,-0.02465825,-0.9224395,0.3301545,8.434057955669433,19.71670908542385,
2023-07-25 18:19:00.380,-1.112805,-6.585366,2.62195125,-0.02651975,-0.9249265,0.3294525,8.534897434752452,19.535005792952674,
2023-07-25 18:19:00.400,-1.158537,-7.10365875,2.31707325,-0.024704,-0.92265325,0.32702624999999996,8.29519604004065,19.557353813365452,
2023-07-25 18:19:00.420,-1.28048775,-7.57621975,2.057927,-0.0253295,-0.9235227500000001,0.32536325,8.525103434106867,19.368245176738174,
2023-07-25 18:19:00.440,-1.3262194999999999,-7.82012225,2.30182925,-0.0255125,-0.9243775000000001,0.32620225,8.45876126201337,19.431121429370023,
2023-07-25 18:19:00.460,-1.3567075,-8.23170775,2.31707325,-0.023712,-0.92347725,0.32464575,8.410598820344617,19.2955053196664,
2023-07-25 18:19:00.480,-1.29573175,-8.2621955,2.7591465,-0.02310175,-0.92279025,0.32272325,8.291284580189597,19.279004107707124,
2023-07-25 18:19:00.500,-1.0213415,-8.338415000000001,3.0487805,-0.026352,-0.92201225,0.3219295,8.525868696959158,19.1597099158769,
2023-07-25 18:19:00.520,-0.92987825,-8.46036625,3.30792675,-0.024521,-0.9223175,0.32148725,8.456353852170977,19.2325663013692,
2023-07-25 18:19:00.540,-0.8689024999999999,-8.643293,3.719512,-0.028427,-0.92239375,0.32339475,8.7562405171322,19.351834044365326,
2023-07-25 18:19:00.560,-0.88414625,-9.390244,4.3292684999999995,-0.028717,-0.91952525,0.3296355,8.76016280343476,19.811917638177324,
2023-07-25 18:19:00.580,-0.97560975,-10.73170725,5.503049,-0.03013625,-0.91500825,0.33609,8.74284883428588,20.066330631613425,
2023-07-25 18:19:00.600,-0.8841465,-12.89634175,6.95122,-0.0334165,-0.9134519999999999,0.33842475,9.038032086356267,20.267743527703125,
2023-07-25 18:19:00.620,-0.44207325,-15.03048825,8.46036625,-0.0360415,-0.91508475,0.33941675,9.105370428969792,20.343727044918225,
2023-07-25 18:19:00.640,-0.06097575,-17.1189025,9.57317125,-0.03564475,-0.9194185,0.33866874999999996,9.138114106844816,20.2365904985311,
2023-07-25 18:19:00.660,-0.04573175,-19.329269,10.167683,-0.04043575,-0.920532,0.3386535,9.3893795668607,20.142388728637023,
2023-07-25 18:19:00.680,-0.2682928,-21.6707322,10.5487804,-0.0401368,-0.9222290000000001,0.33430180000000004,9.440039880724436,19.889041120474058,
2023-07-25 18:19:00.700,-0.56402425,-23.52134175,10.426829000000001,-0.04263325,-0.920929,0.3279265,9.493915598878862,19.637963007849827,
2023-07-25 18:19:00.720,-1.143293,-24.466464000000002,10.06097575,-0.041382,-0.9223635,0.3247985,9.403821519472983,19.409593193922476,
2023-07-25 18:19:00.740,-1.67682925,-24.6798785,10.015244,-0.044571,-0.92112725,0.31929,9.566913074682994,19.1556274870346,
2023-07-25 18:19:00.760,-1.859756,-24.07012225,10.18292675,-0.04374675,-0.9159395,0.312927,9.54473057402379,18.87846429993555,
2023-07-25 18:19:00.780,-1.9207317499999998,-22.27134225,10.53353675,-0.042846499999999996,-0.91877725,0.30705275,9.478494540534975,18.42487882604065,
2023-07-25 18:19:00.800,-1.859756,-20.030488,10.64024425,-0.0437315,-0.92054775,0.30497725,9.548597938297561,18.2835960893253,
2023-07-25 18:19:00.820,-1.6006095,-17.89634225,10.32012175,-0.042816,-0.9244537500000001,0.30639675,9.517157104032947,18.217591565377347,
2023-07-25 18:19:00.840,-1.6768290000000001,-15.792683,9.98475625,-0.04620375,-0.92977875,0.3086395,9.690682093537976,18.328597836395925,
2023-07-25 18:19:00.860,-1.6463415,-14.222561,8.856707499999999,-0.047912750000000004,-0.93380725,0.315155,9.826569580128607,18.72847261433905,
2023-07-25 18:19:00.880,-1.23475625,-13.07926875,7.17987825,-0.050949,-0.9283600000000001,0.318741,10.000261677752318,18.950524198045976,
2023-07-25 18:19:00.900,-0.8536585,-12.48475625,6.0518295,-0.05181875,-0.9281922499999999,0.32276925,10.069560688571524,19.163128048594626,
2023-07-25 18:19:00.920,-0.731707,-12.149390499999999,4.9542684999999995,-0.05458075,-0.9255675,0.323944,10.23113658496015,19.2573841068881,
2023-07-25 18:19:00.940,-0.60975625,-12.01219575,4.2682927500000005,-0.05668625,-0.92309575,0.32357775,10.24344175288885,19.346665005847324,
2023-07-25 18:19:00.960,-0.19817075,-11.98170775,3.9786585,-0.055435,-0.92297375,0.32681275,10.251931705046593,19.5025999767679,
2023-07-25 18:19:00.980,0.25914625,-11.417683,4.070122,-0.05847175,-0.9174804999999999,0.32121275,10.47943968927185,19.32316679655265,
2023-07-25 18:19:01.000,0.25914624999999997,-10.7774395,4.679878,-0.061508,-0.9191590000000001,0.320862,10.641850021844174,19.204154141965574,
2023-07-25 18:19:01.020,2.5000000000025e-07,-10.35061,5.1371952499999995,-0.0598755,-0.9189455,0.32136525,10.485697542990774,19.314376401138148,
2023-07-25 18:19:01.040,-0.44207325,-10.289634,4.93902425,-0.05883775,-0.9199525,0.32273875,10.515001467711901,19.311396673502124,
2023-07-25 18:19:01.060,-0.77743875,-10.396341249999999,4.81707325,-0.0619505,-0.9201815,0.32345575,10.664387625301325,19.37824564923205,
2023-07-25 18:19:01.080,-0.929878,-10.518292500000001,4.64939025,-0.0629575,-0.9204559999999999,0.32479875,10.68173978082805,19.457360999822548,
2023-07-25 18:19:01.100,-0.7682928,-10.5853658,4.085366,-0.0603394,-0.9250731999999999,0.3261966,10.55005299444356,19.41002378998928,
2023-07-25 18:19:01.120,-0.27439,-10.579268,3.5365855,-0.06118775,-0.926575,0.32507325,10.441425085879626,19.3505523512296,
2023-07-25 18:19:01.140,0.2134145,-10.426829,2.7743902499999997,-0.0625305,-0.92440775,0.32534799999999997,10.670813747378125,19.405268567090374,
2023-07-25 18:19:01.160,0.25914625,-10.015244,2.5457315,-0.06159975,-0.9217835,0.32168575,10.5896582205879,19.261751450368877,
2023-07-25 18:19:01.180,0.22865875,-9.603658750000001,2.195122,-0.062271,-0.91996775,0.321991,10.574997105643124,19.302214933421126,
2023-07-25 18:19:01.200,0.01524375,-9.207317,2.11890275,-0.061661,-0.91720575,0.32258575,10.5901776356067,19.300832078298598,
2023-07-25 18:19:01.220,0.030488,-8.73475625,2.2865855,-0.062027,-0.91816725,0.3235625,10.527298713038425,19.4072813121344,
2023-07-25 18:19:01.240,0.0914635,-8.32317125,2.2713415,-0.06333949999999999,-0.916748,0.32437099999999996,10.63257306650155,19.46126933808905,
2023-07-25 18:19:01.260,0.167683,-7.69817075,2.37804875,-0.0637205,-0.9189302500000001,0.32426475,10.713519101949325,19.464040877324173,
2023-07-25 18:19:01.280,0.13719525,-7.1493905,2.1189025,-0.0625,-0.918747,0.3247375,10.7753650831482,19.461428660407826,
2023-07-25 18:19:01.300,0.015244,-6.69207325,1.829268,-0.06327825000000001,-0.92045575,0.32582075,10.762321948436174,19.52480518017805,
2023-07-25 18:19:01.320,-0.18292675,-6.295732,1.66158525,-0.06219475,-0.92079175,0.32536325,10.759529777237299,19.379085815948674,
2023-07-25 18:19:01.340,-0.4115855,-5.80792675,1.234756,-0.061417,-0.91963175,0.32456975,10.659206814725374,19.44896898356495,
2023-07-25 18:19:01.360,-0.457317,-5.487804499999999,1.14329275,-0.0643005,-0.91906725,0.32589725,10.728673171166875,19.6120724049627,
2023-07-25 18:19:01.380,-0.47256125,-5.45731725,1.12804875,-0.061691499999999996,-0.9192199999999999,0.3266755,10.571644833801775,19.5118519840946,
2023-07-25 18:19:01.400,-0.259146,-5.28963425,1.0365855,-0.06134025,-0.91778575,0.326584,10.68537680203435,19.5250548292877,
2023-07-25 18:19:01.420,-0.24390225,-5.19817075,1.00609775,-0.0640715,-0.9187927499999999,0.32603424999999997,10.7113263687836,19.559770882419876,
2023-07-25 18:19:01.440,-0.2134145,-4.96951225,0.929878,-0.0642855,-0.91986075,0.32603475,10.84251386168185,19.592420088662877,
2023-07-25 18:19:01.460,0.0,-4.664634,0.640244,-0.0638885,-0.92059325,0.326187,10.688476506828476,19.479225321827947,
2023-07-25 18:19:01.480,0.0,-4.34451225,0.4115855,-0.06303399999999999,-0.9197235,0.326538,10.702848210020349,19.531788713652723,
2023-07-25 18:19:01.500,0.109756,-4.0487806,0.2317072,-0.06301280000000001,-0.9185302,0.32667219999999997,10.73734431544402,19.52656157943862,
2023-07-25 18:19:01.520,0.2134145,-3.6737807499999997,0.27439025,-0.063629,-0.919571,0.326828,10.677093826352724,19.587388943833275,
2023-07-25 18:19:01.540,0.167683,-3.38414625,0.152439,-0.0659485,-0.918732,0.325775,10.868893020279675,19.516730342208124,
2023-07-25 18:19:01.560,0.04573175,-3.07926825,0.04573175,-0.060974,-0.91770925,0.3255765,10.51594617383095,19.5052402365421,
2023-07-25 18:19:01.580,-0.0457315,-2.6981705,-0.289634,-0.06663525000000001,-0.92041025,0.325882,10.894869501207875,19.486826678101,
2023-07-25 18:19:01.600,-0.06097575,-2.5,-0.39634125,-0.06445324999999999,-0.917648,0.32763675,10.771574457891651,19.690419710394774,
2023-07-25 18:19:01.620,-0.27439,-2.33231725,-0.5335365,-0.06448375,-0.9206544999999999,0.326462,10.78964350163075,19.5712382560062,
2023-07-25 18:19:01.640,-0.304878,-2.2408535,-0.74695125,-0.0660095,-0.9188689999999999,0.3277435,10.805037133304399,19.568950365346574,
2023-07-25 18:19:01.660,-0.24390225000000001,-2.362805,-0.79268325,-0.065277,-0.9194185,0.32968125,10.896442215092176,19.765973306601474,
2023-07-25 18:19:01.680,-0.030488,-2.515244,-0.74695125,-0.06398,-0.9193724999999999,0.33000175,10.80997422304335,19.799630087216876,
2023-07-25 18:19:01.700,0.21341425,-2.7286585,-0.53353675,-0.06369025,-0.91870125,0.32934575,10.74708041365465,19.768505600989926,
2023-07-25 18:19:01.720,0.56402425,-2.9268295,-0.60975625,-0.06251525,-0.9169462500000001,0.32841475,10.672841801872975,19.6374390175561,
2023-07-25 18:19:01.740,0.823171,-2.89634125,-0.4268295,-0.061675999999999995,-0.91932675,0.32702625,10.573466815524451,19.601087370713373,
2023-07-25 18:19:01.760,0.8841465,-2.759146,-0.41158525,-0.06176775,-0.91590875,0.32458475,10.597510769387625,19.430926021577648,
2023-07-25 18:19:01.780,1.1737807500000002,-2.43902425,-0.487805,-0.06327825000000001,-0.919937,0.32894900000000005,10.669042021972475,19.744759982048876,
2023-07-25 18:19:01.800,1.43292675,-2.27134125,-0.27439025,-0.062973,-0.9181367500000001,0.3277435,10.7263067680421,19.6100114603512,
2023-07-25 18:19:01.820,1.08231725,-1.875,0.0,-0.06533825,-0.9186555000000001,0.32576,10.804985160942625,19.553076350044975,
2023-07-25 18:19:01.840,0.67073175,-1.47865875,0.0762195,-0.06297325,-0.91612225,0.32637025000000003,10.713109116387026,19.5942654415348,
2023-07-25 18:19:01.860,0.0609755,-1.40243875,-0.10670725,-0.06445325,-0.91725175,0.32717874999999996,10.829991290098175,19.575584803953276,
2023-07-25 18:19:01.880,-0.10670750000000001,-1.43292675,-0.30487775,-0.0626985,-0.91630575,0.3283995,10.68495788875325,19.73167893504855,
2023-07-25 18:19:01.900,-0.137195,-1.4786584999999999,-0.47256125,-0.063217,-0.91738875,0.3303985,10.76831716157745,19.74743340330945,
2023-07-25 18:19:01.920,0.1097562,-1.5243904000000001,-0.6463414000000001,-0.064575,-0.921216,0.33057879999999995,10.76875376758476,19.745084173116062,
2023-07-25 18:19:01.940,0.5335365,-1.31097525,-0.73170725,-0.064865,-0.919403,0.330704,10.826098506827151,19.78140079396905,
2023-07-25 18:19:01.960,0.8689025,-1.35670725,-0.8536587499999999,-0.06372074999999999,-0.9178925,0.33132925,10.7359075557917,19.815957054716826,
2023-07-25 18:19:01.980,0.9908535,-1.23475625,-0.6859755,-0.06497225,-0.9153899999999999,0.33041375,10.8563354690055,19.902191136447325,
2023-07-25 18:19:02.000,1.097561,-1.1890245,-0.42682925,-0.064987,-0.9184265,0.32949825,10.686701716884325,19.747966395789298,
2023-07-25 18:19:02.020,1.0213415000000001,-1.0365852500000001,0.0,-0.0647735,-0.9163055,0.33111575000000004,10.807092209628674,19.850367995084927,
2023-07-25 18:19:02.040,1.3414635000000001,-1.0670730000000002,-0.0762195,-0.06381225,-0.9149627499999999,0.3328705,10.80351618090355,20.029028463460826,
2023-07-25 18:19:02.060,1.47865875,-1.0060975,0.0,-0.06471249999999999,-0.91449,0.33197025,10.7999007784768,19.93981302539595,
2023-07-25 18:19:02.080,1.402439,-0.8689024999999999,0.0914635,-0.06439225,-0.9152985,0.3334655,10.600318581534575,20.089404586702948,
2023-07-25 18:19:02.100,1.1890245,-0.86890275,0.10670725,-0.06561275,-0.9178465,0.33648675,10.86848929198965,20.180952511166176,
2023-07-25 18:19:02.120,0.7012195,-0.86890275,-0.04573175,-0.06794725,-0.9174195,0.33525099999999997,11.004726114448424,20.044325358936575,
2023-07-25 18:19:02.140,0.22865850000000001,-1.097561,-0.335366,-0.06629925,-0.91745,0.33683775,10.83342949019065,20.1014441603342,
2023-07-25 18:19:02.160,-0.2134145,-1.25,-0.487805,-0.0656585,-0.91597025,0.3368835,10.84290078011335,20.211199819006723,
2023-07-25 18:19:02.180,-0.25914625,-1.47865875,-0.7164634999999999,-0.0667575,-0.9171145,0.3352355,10.988620863860826,20.10221669477635,
2023-07-25 18:19:02.200,-0.137195,-1.44817075,-0.7317075,-0.06437699999999999,-0.916397,0.33291625,10.75470313463235,19.958637146401173,
2023-07-25 18:19:02.220,-0.01524375,-1.32621925,-0.65548775,-0.06488050000000001,-0.91690075,0.332214,10.713082661035074,19.935900295579575,
2023-07-25 18:19:02.240,0.2134145,-1.28048775,-0.42682925,-0.06283575,-0.917557,0.3321685,10.559486228720825,19.90014763858055,
2023-07-25 18:19:02.260,0.487805,-1.15853675,-0.289634,-0.0656585,-0.917267,0.3337405,10.872840348757599,20.0241065415411,
2023-07-25 18:19:02.280,0.56402475,-1.14329275,-0.22865875,-0.06549075,-0.9185335,0.3361055,10.847473001446275,20.134513630314,
2023-07-25 18:19:02.300,0.76219525,-1.25,-0.167683,-0.06562825,-0.91488625,0.33554075,10.81160966363155,20.271246561103624,
2023-07-25 18:19:02.320,0.67073175,-1.4329269999999998,-0.27439025,-0.0667115,-0.91610725,0.335556,10.90960496986495,20.106799395870926,
2023-07-25 18:19:02.340,0.6219514,-1.4634146,-0.0853662,-0.0645872,-0.9154538000000001,0.3362794,10.70745622471188,20.16735132092034,
2023-07-25 18:19:02.360,0.304878,-1.707317,0.030488,-0.06425475,-0.914444,0.33668525,10.817680940352675,20.234741974211502,
2023-07-25 18:19:02.380,0.04573175,-1.7987805,0.04573175,-0.0664215,-0.91310125,0.33645625,10.882772296494124,20.173953963991224,
2023-07-25 18:19:02.400,-0.19817075,-1.920732,0.182927,-0.06434625,-0.91397075,0.33442675,10.732252757347549,20.060985308500374,
2023-07-25 18:19:02.420,-0.3506095,-1.844512,0.320122,-0.0650175,-0.91230775,0.33433525,10.796062329370676,20.191048550637625,
2023-07-25 18:19:02.440,-0.472561,-1.707317,0.5487805,-0.065979,-0.91426075,0.33340475,10.85443075383505,20.05265066242725,
2023-07-25 18:19:02.460,-0.5792685,-1.76829275,0.65548775,-0.0649415,-0.9153595,0.33425900000000003,10.828674046721725,19.969919376387224,
2023-07-25 18:19:02.480,-0.64024375,-1.75304875,0.71646325,-0.06654375,-0.91629025,0.33273325,10.86826198234575,19.957814594615076,
2023-07-25 18:19:02.500,-0.777439,-1.8140245,0.38109775,-0.068573,-0.916809,0.33229074999999997,10.96782839173405,19.9611680146242,
2023-07-25 18:19:02.520,-0.59451225,-1.692073,0.45731725,-0.06831375,-0.917801,0.33093275,11.038282404986575,19.8017753288466,
2023-07-25 18:19:02.540,-0.33536575,-1.539634,0.25914625,-0.06767275,-0.9192505,0.33229050000000004,10.917832567563849,19.842201703728776,
2023-07-25 18:19:02.560,-0.10670725,-1.4634147499999999,0.3658535,-0.06799325,-0.9160005,0.3334045,10.903484249719074,20.0045747613622,
2023-07-25 18:19:02.580,0.10670750000000001,-1.55487825,0.304878,-0.06669575,-0.9172972500000001,0.334015,10.859700091315075,19.98707960365865,
2023-07-25 18:19:02.600,0.0914635,-1.661585,0.24390250000000002,-0.068329,-0.91413875,0.33497625,10.993566125551276,20.07684106640625,
2023-07-25 18:19:02.620,0.304878,-1.7682927499999999,0.48780475,-0.06517049999999999,-0.915497,0.335434,10.75840072162405,20.133915626178876,
2023-07-25 18:19:02.640,0.62500025,-1.72256075,0.9603659999999999,-0.067276,-0.9124145,0.33212275,10.8950152471441,20.1079939320183,
2023-07-25 18:19:02.660,0.16768275,-1.35670725,1.34146325,-0.0710145,-0.914749,0.328064,11.267085144540925,19.775220404626324,
2023-07-25 18:19:02.680,-0.36585375,-0.9756097499999999,1.387195,-0.0706025,-0.914917,0.3274995,11.171792379233574,19.769209509281097,
2023-07-25 18:19:02.700,-0.89939025,-0.655488,1.3719515,-0.07058725,-0.9176635,0.3286435,11.167398329220875,19.753712413919725,
2023-07-25 18:19:02.720,-1.112805,-0.7164634999999999,1.234756,-0.07171625,-0.9169007499999999,0.33010875,11.23570372543775,19.786771778003327,
2023-07-25 18:19:02.740,-0.8292683999999999,-0.8170732,0.9024391999999999,-0.07487780000000001,-0.9170653999999999,0.3308836,11.37780175680704,19.82956755019674,
2023-07-25 18:19:02.760,-0.12195125,-0.8841465,0.83841475,-0.07547,-0.91996725,0.33152775,11.5295000236566,19.837767608873698,
2023-07-25 18:19:02.780,0.472561,-1.02134125,0.762195,-0.0748595,-0.918167,0.3324125,11.395298232264025,19.871071344916775,
2023-07-25 18:19:02.800,0.92987825,-0.97560975,0.5487807499999999,-0.07469175,-0.9184725,0.33177175000000003,11.3924086675576,19.7865260982624,
2023-07-25 18:19:02.820,1.2042685,-0.83841475,0.2439025,-0.07344049999999999,-0.91717525,0.33032225000000004,11.2721384158428,19.766255950654376,
2023-07-25 18:19:02.840,1.0365852500000001,-0.5335365,0.121951,-0.073273,-0.9164275,0.33171075,11.1677472143614,19.88122667337915,
2023-07-25 18:19:02.860,0.762195,-0.10670750000000001,0.2286585,-0.0726775,-0.91375725,0.32943725,11.344472018380351,19.863056428667324,
2023-07-25 18:19:02.880,0.3810975,0.25914625,0.182927,-0.07698075,-0.91183475,0.33161925000000003,11.568902730685476,19.940065362332124,
2023-07-25 18:19:02.900,0.35061,0.51829275,0.30487825,-0.07623275,-0.9124145,0.334717,11.546017246689875,20.103519327443102,
2023-07-25 18:19:02.920,0.35060975,0.518293,0.25914625,-0.077011,-0.91328425,0.332794,11.557252733186925,19.993474768806024,
2023-07-25 18:19:02.940,0.28963425,0.68597575,0.28963425,-0.07908625,-0.914673,0.33451825,11.7005735687395,20.140199889304174,
2023-07-25 18:19:02.960,0.06097575,0.5792682499999999,0.24390225,-0.0770725,-0.91543575,0.3375095,11.57424492761245,20.23190644212665,
2023-07-25 18:19:02.980,-0.28963425,0.320122,2.5000000000025e-07,-0.0799255,-0.9167175,0.33474725,11.57373818941625,20.004564005111774,
2023-07-25 18:19:03.000,-0.51829275,-0.04573175,-0.1219515,-0.08073425000000001,-0.91383375,0.3357545,11.794586411433475,20.204855106187726,
2023-07-25 18:19:03.020,-0.67073175,-0.38109775,-0.10670725,-0.07949824999999999,-0.91616825,0.33525075,11.723082846849149,20.071327877011626,
2023-07-25 18:19:03.040,-0.76219525,-0.5487805,-0.25914625,-0.07963575,-0.91496275,0.33367925,11.684637806750299,20.0020014874733,
2023-07-25 18:19:03.060,-0.73170725,-0.5640244999999999,-0.22865850000000001,-0.08032225,-0.91574125,0.331009,11.629810826388075,19.823966911265977,
2023-07-25 18:19:03.080,-0.64024375,-0.38109775,-0.19817075,-0.081543,-0.9166415,0.3306275,11.786579995305075,19.861311133818724,
2023-07-25 18:19:03.100,-0.5335365,-0.289634,-0.0914635,-0.081436,-0.91645825,0.3289185,11.787942653874275,19.732666811533026,
2023-07-25 18:19:03.120,-0.442073,-0.18292675,-0.1981705,-0.0804595,-0.91590875,0.32989525,11.677282891256825,19.8408302918855,
2023-07-25 18:19:03.140,-0.335366,-0.137195,-0.2439025,-0.08058175000000001,-0.9171755,0.33029175,11.648953487046025,19.795271905812974,
2023-07-25 18:19:03.160,-0.2926828,-0.07317080000000001,-0.36585340000000005,-0.08176259999999999,-0.9167112,0.3308472,11.76629226313462,19.7690358822845,
2023-07-25 18:19:03.180,-0.10670750000000001,-0.0762195,-0.25914625,-0.0816345,-0.91784675,0.32998649999999996,11.85003349484375,19.7759581358266,
2023-07-25 18:19:03.200,-0.015244,-0.152439,-0.41158525,-0.0839995,-0.91658025,0.3302305,12.042606131520225,19.768571942946625,
2023-07-25 18:19:03.220,-0.015244,-0.18292675,-0.6707315,-0.0822755,-0.9164125000000001,0.32963575,11.84064475543515,19.7858298882408,
2023-07-25 18:19:03.240,-2.5000000000025e-07,-0.152439,-0.777439,-0.08158875,-0.915161,0.330719,11.75820718421495,19.903899116004702,
2023-07-25 18:19:03.260,-0.137195,-0.10670750000000001,-0.92987825,-0.082367,-0.9148405,0.3291015,11.956591343743874,19.875628253471977,
2023-07-25 18:19:03.280,-0.259146,0.04573175,-0.83841475,-0.07926949999999999,-0.9152065,0.3279265,11.663921126080975,19.68240453591705,
2023-07-25 18:19:03.300,-0.304878,0.289634,-0.89939025,-0.08245849999999999,-0.915085,0.33027625,11.87817885923355,19.83874757096535,
2023-07-25 18:19:03.320,-0.365854,0.3963415,-0.8536585,-0.0824585,-0.9160462500000001,0.33149724999999997,11.75671420197605,19.926454798584775,
2023-07-25 18:19:03.340,-0.21341425,0.25914625,-0.79268275,-0.08053575,-0.914871,0.33090225,11.755305216272175,19.923131041555425,
2023-07-25 18:19:03.360,-0.22865850000000001,0.137195,-0.8689024999999999,-0.0825805,-0.9167175000000001,0.33021525,11.755466864297276,19.841017475220898,
2023-07-25 18:19:03.380,-0.18292675,0.09146325,-0.88414625,-0.080063,-0.91523725,0.33009325,11.717022393375625,19.862416799322276,
2023-07-25 18:19:03.400,-0.167683,0.13719525,-0.945122,-0.08309925,-0.9165194999999999,0.32887299999999997,11.801152895468475,19.715826217814598,
2023-07-25 18:19:03.420,-0.2134145,0.2134145,-0.929878,-0.07997125,-0.9133454999999999,0.327835,11.673516357581926,19.825672941741274,
2023-07-25 18:19:03.440,-0.304878,0.42682925,-0.945122,-0.08096325,-0.9136807499999999,0.32836925,11.793056529953176,19.786136224637975,
2023-07-25 18:19:03.460,-0.5335369999999999,0.518293,-1.08231725,-0.082779,-0.913742,0.328125,11.77170916337195,19.676029869182997,
2023-07-25 18:19:03.480,-0.548781,0.503049,-1.12804875,-0.08253475,-0.91450525,0.3288115,11.9284559125733,19.729281430470326,
2023-07-25 18:19:03.500,-0.73170725,0.5945125,-1.17378075,-0.08293125,-0.91581725,0.33032225,11.861092642831451,19.846387676269625,
2023-07-25 18:19:03.520,-0.59451225,0.38109775,-1.14329275,-0.08471675000000001,-0.91716,0.3279265,11.966321856841251,19.655300214141324,
2023-07-25 18:19:03.540,-0.39634175,0.335366,-0.945122,-0.08370975,-0.9180755,0.32843049999999996,11.862443898215776,19.65712228492075,
2023-07-25 18:19:03.560,-0.0365852,0.1829268,-1.0487806,-0.082837,-0.9173462000000001,0.3293702,11.95013410050988,19.6639543600433,
2023-07-25 18:19:03.580,0.045732,0.0,-1.1737805,-0.083008,-0.91667175,0.3282165,11.856137180717175,19.687042948580476,
2023-07-25 18:19:03.600,0.01524375,-0.03048775,-1.20426825,-0.080063,-0.9148715000000001,0.329834,11.674284780544674,19.80117229831375,
2023-07-25 18:19:03.620,0.2439025,-0.320122,-1.234756,-0.0801085,-0.91362,0.3309175,11.7207953514086,19.934399974758175,
2023-07-25 18:19:03.640,0.152439,-0.289634,-0.76219525,-0.08277899999999999,-0.9114685,0.32734675,11.724367603467176,19.871355199385576,
2023-07-25 18:19:03.660,-0.304878,0.030488,-0.27439025,-0.08309925,-0.91506975,0.3243105,11.871692285923825,19.553915632406074,
2023-07-25 18:19:03.680,-1.0060975,0.28963425,-0.472561,-0.08189375,-0.9176482499999999,0.324585,11.9493447097104,19.425652063782525,
2023-07-25 18:19:03.700,-1.32621925,0.35060975,-0.86890225,-0.083771,-0.9177855,0.325577,11.9609371654956,19.502926082607523,
2023-07-25 18:19:03.720,-1.25,0.304878,-0.99085375,-0.08271775,-0.91682425,0.3244325,11.7841955760892,19.473778929594626,
2023-07-25 18:19:03.740,-0.73170725,0.30487775,-1.15853675,-0.08250425,-0.91784675,0.32392875,11.878509115533575,19.50889585171285,
2023-07-25 18:19:03.760,-0.19817075,0.2591465,-1.234756,-0.08474725,-0.9187775,0.32501225,11.939783608846575,19.442375551014976,
2023-07-25 18:19:03.780,0.32012175,0.015244,-1.1890245,-0.0829165,-0.9170535,0.3264005,11.738520019515475,19.6226689436426,
2023-07-25 18:19:03.800,0.60975625,-0.152439,-1.21951225,-0.08287025,-0.9153290000000001,0.32661425,11.961265149868074,19.648438465412802,
2023-07-25 18:19:03.820,0.41158525,-0.27439,-0.929878,-0.08140549999999999,-0.9149625,0.32640075,11.7559529741069,19.619356659858724,
2023-07-25 18:19:03.840,0.22865875000000002,-0.472561,-0.73170725,-0.0819245,-0.91445925,0.32644675,11.893382719533575,19.72157245440295,
2023-07-25 18:19:03.860,-0.0609755,-0.2286585,-0.625,-0.08380125,-0.9163055,0.32485975,11.89240414688745,19.54350934772395,
2023-07-25 18:19:03.880,-0.137195,-0.137195,-0.5792682499999999,-0.08264175,-0.9164125,0.32340975,11.84065214268375,19.4201424447451,
2023-07-25 18:19:03.900,0.0457315,-0.015244,-0.74695125,-0.083801,-0.916809,0.326248,11.968050508173475,19.64697255080235,
2023-07-25 18:19:03.920,0.22865875000000002,0.182927,-0.99085375,-0.0847625,-0.91539,0.32427975,11.9606890892675,19.513826668734474,
2023-07-25 18:19:03.940,0.18292675,0.28963425,-0.97560975,-0.0818025,-0.91920475,0.32318125,11.83923787398265,19.3837389374853,
2023-07-25 18:19:03.960,-0.06097575,0.35061,-0.97560975,-0.0850525,-0.9154052500000001,0.326065,11.994013842961275,19.591266075563226,
2023-07-25 18:19:03.980,-0.5243903999999999,0.0365852,-1.0487804,-0.0855592,-0.9160278,0.3274294,12.10017134277654,19.700890800018918,
2023-07-25 18:19:04.000,-0.82317075,-0.39634125,-1.1890245,-0.08541900000000001,-0.91705325,0.3276215,12.0598292327946,19.611678920798724,
2023-07-25 18:19:04.020,-0.89939025,-0.8231707500000001,-1.0518295,-0.08361825,-0.917389,0.326294,11.80015212651035,19.581263480677002,
2023-07-25 18:19:04.040,-0.7012195,-0.97560975,-1.097561,-0.083481,-0.91892975,0.32444775,11.99280095792005,19.44083661794805,
2023-07-25 18:19:04.060,-0.25914625,-1.0060975,-0.97560975,-0.0803835,-0.9186402499999999,0.323288,11.6489186587541,19.363871094380876,
2023-07-25 18:19:04.080,-0.015244,-0.807927,-0.8689025,-0.081955,-0.91764825,0.32005325,11.784691689722525,19.267497031130276,
2023-07-25 18:19:04.100,0.304878,-0.47256125,-1.09756075,-0.082535,-0.919037,0.31915275,11.834943400010925,19.0861592765758,
2023-07-25 18:19:04.120,0.42682925,-0.18292675,-1.0213415000000001,-0.082855,-0.91676325,0.3209075,11.841571770952825,19.3324669310899,
2023-07-25 18:19:04.140,0.3963415,-0.06097575,-1.0213415000000001,-0.08180224999999999,-0.91647325,0.32135,11.8555556078166,19.199711227534152,
2023-07-25 18:19:04.160,0.3810975,-0.10670750000000001,-1.1585364999999999,-0.08261075,-0.916412,0.322403,11.881771512144876,19.3906698823708,
2023-07-25 18:19:04.180,0.42682925,-0.12195125000000001,-1.0213415000000001,-0.08122275,-0.91593925,0.32496625,11.83305619599105,19.555839981518574,
2023-07-25 18:19:04.200,0.503049,-0.21341475,-0.89939025,-0.08076475,-0.9166412500000001,0.324524,11.694217695829675,19.505407929290925,
2023-07-25 18:19:04.220,0.457317,-0.289634,-0.91463425,-0.082245,-0.91645825,0.32586675,11.753509642317574,19.621214773191824,
2023-07-25 18:19:04.240,0.3658535,-0.36585375,-0.945122,-0.08358775,-0.9170229999999999,0.32348625,11.788892981926676,19.493204494466575,
2023-07-25 18:19:04.260,0.167683,-0.548781,-1.06707325,-0.0816345,-0.9173582499999999,0.326248,11.710854963286826,19.63884205414065,
2023-07-25 18:19:04.280,-0.03048775,-0.60975625,-1.06707325,-0.08091725,-0.91587825,0.32530225,11.712653174210375,19.482476306029923,
2023-07-25 18:19:04.300,-0.137195,-0.56402475,-0.929878,-0.082016,-0.91534425,0.32197575,11.878914653684125,19.307103253816724,
2023-07-25 18:19:04.320,-0.1981705,-0.59451225,-0.83841475,-0.07901025,-0.9171447500000001,0.32438675,11.639133477260925,19.59601550769625,
2023-07-25 18:19:04.340,-0.03048775,-0.60975625,-0.65548775,-0.08200099999999999,-0.91593925,0.325119,11.78623691289945,19.582608800017148,
2023-07-25 18:19:04.360,0.0457315,-0.6097565,-0.5792685,-0.07911675,-0.9170075,0.32281525,11.6113511347363,19.327546007553302,
2023-07-25 18:19:04.380,0.13719525,-0.625,-0.945122,-0.08171075,-0.9192655000000001,0.323059,11.78789698460895,19.389046512684576,
2023-07-25 18:19:04.400,0.0731706,-0.48780520000000005,-1.0121954,-0.0809936,-0.9180298,0.3245848,11.73515524030734,19.40793834023804,
2023-07-25 18:19:04.420,-0.015244,-0.259146,-1.02134125,-0.0829925,-0.9172210000000001,0.32229625,11.84411001206685,19.375745700955598,
2023-07-25 18:19:04.440,-0.12195125000000001,-0.304878,-1.128049,-0.083969,-0.91696175,0.32473775,11.8241893131184,19.477634381041224,
2023-07-25 18:19:04.460,-0.289634,-0.4268295,-0.94512175,-0.08306875,-0.9192352500000001,0.3256685,11.830453537056751,19.490725613021926,
2023-07-25 18:19:04.480,-0.03048775,-0.5487805,-1.143293,-0.08296175,-0.917114,0.32627875,11.773393422092326,19.560871767268498,
2023-07-25 18:19:04.500,0.0762195,-0.73170725,-1.265244,-0.08300775,-0.917114,0.3247835,11.86662756868525,19.5171781619872,
2023-07-25 18:19:04.520,0.04573175,-0.89939025,-1.0213415000000001,-0.08076475,-0.916031,0.32484425,11.6682359894541,19.503990320255074,
2023-07-25 18:19:04.540,0.06097575,-0.945122,-1.12804875,-0.08047525,-0.917923,0.32548525,11.726838185331324,19.458829379844225,
2023-07-25 18:19:04.560,0.28963425,-1.1128049999999998,-0.945122,-0.08212275,-0.91561875,0.325882,11.873681678330499,19.62498518359135,
2023-07-25 18:19:04.580,0.1829265,-0.97560975,-0.625,-0.0812225,-0.91731275,0.32196025,11.738487363537125,19.355124919361874,
2023-07-25 18:19:04.600,-0.22865850000000001,-0.56402425,-0.7012195,-0.08203125,-0.918579,0.31951925000000003,11.807125776800124,19.167816072013025,
2023-07-25 18:19:04.620,-0.518293,-0.25914625,-0.89939025,-0.0819095,-0.92005925,0.32023625,11.743448102483,19.184473942410072,
2023-07-25 18:19:04.640,-0.5640244999999999,-0.06097575,-1.2957317499999998,-0.084137,-0.91795375,0.32051050000000003,11.890384967168025,19.215720799476273,
2023-07-25 18:19:04.660,-0.3963415,-0.10670750000000001,-1.43292675,-0.0823365,-0.9177095,0.32363875,11.9034449367231,19.491049759329023,
2023-07-25 18:19:04.680,0.04573175,-0.22865850000000001,-1.4939025,-0.08108525,-0.91824325,0.32437125,11.8215144579686,19.441838189956073,
2023-07-25 18:19:04.700,0.35060975,-0.5487805,-1.4634147499999999,-0.0827485,-0.917038,0.325409,11.87315339653485,19.560629283798598,
2023-07-25 18:19:04.720,0.53353675,-0.97561,-1.57012175,-0.08282475,-0.9185485,0.32514925,11.958058688937125,19.620504723669924,
2023-07-25 18:19:04.740,0.5640244999999999,-1.26524375,-1.3109755,-0.08006275,-0.91644275,0.32351675,11.6583982944614,19.451824562209527,
2023-07-25 18:19:04.760,0.33536575,-1.265244,-1.112805,-0.0793455,-0.91542075,0.32629375,11.71192401676645,19.637493327122275,
2023-07-25 18:19:04.780,0.12195125,-1.234756,-0.9603659999999999,-0.0802765,-0.917389,0.323486,11.63676750664265,19.32370482865565,
2023-07-25 18:19:04.800,-0.1341462,-0.9878047999999999,-0.7682928,-0.0796998,-0.9181518000000001,0.32286380000000003,11.6818423327025,19.35269282979198,
2023-07-25 18:19:04.820,0.03048775,-0.80792675,-0.8689024999999999,-0.07960525,-0.91763325,0.323944,11.74474027505735,19.44666437745365,
2023-07-25 18:19:04.840,0.2743905,-0.68597575,-0.89939025,-0.08038325,-0.9154205,0.322998,11.867162228761375,19.4224701112548,
2023-07-25 18:19:04.860,0.2134145,-0.45731725,-0.91463425,-0.079758,-0.91821325,0.324249,11.668273166550051,19.48607352568325,
2023-07-25 18:19:04.880,0.12195125000000001,-0.259146,-1.143293,-0.07987975,-0.9191590000000001,0.32368474999999997,11.587138669820275,19.407153802019323,
2023-07-25 18:19:04.900,-0.07621925,-0.28963425,-1.432927,-0.07968125,-0.91687025,0.32421875,11.596568784838276,19.415029299543477,
2023-07-25 18:19:04.920,-0.320122,-0.3963415,-1.402439,-0.07806375,-0.91738875,0.3229065,11.5477709565345,19.440319091860125,
2023-07-25 18:19:04.940,-0.548781,-0.518293,-1.38719525,-0.07991,-0.91531375,0.32322675,11.642885272515375,19.41835840164365,
2023-07-25 18:19:04.960,-0.67073175,-0.65548775,-1.38719525,-0.0778655,-0.91581725,0.32414225,11.5469369130045,19.527417974448074,
2023-07-25 18:19:04.980,-0.7317072499999999,-0.83841475,-1.31097575,-0.0793915,-0.91725175,0.32316575000000003,11.595038083657625,19.496514915306598,
2023-07-25 18:19:05.000,-0.45731725,-0.8689024999999999,-1.3109755,-0.0789795,-0.91871625,0.32157925,11.739669319482925,19.29761921374855,
2023-07-25 18:19:05.020,-0.289634,-0.792683,-1.12804875,-0.0799105,-0.92004375,0.32046475,11.639084395086675,19.2086680838806,
2023-07-25 18:19:05.040,-0.21341425,-0.71646325,-1.20426825,-0.07690425000000001,-0.91818225,0.32096875,11.53959614342035,19.247180154255226,
2023-07-25 18:19:05.060,-0.12195125000000001,-0.68597575,-1.265244,-0.079605,-0.91688525,0.32148725,11.664887515122025,19.3112903554792,
2023-07-25 18:19:05.080,-0.0914635,-0.5792685,-1.32621925,-0.07952875,-0.91786175,0.31864925,11.577893975368049,19.106738238181574,
2023-07-25 18:19:05.100,-0.152439,-0.5640244999999999,-1.35670725,-0.07826225,-0.91748075,0.3194885,11.624079121701424,19.294116542692525,
2023-07-25 18:19:05.120,-0.25914625,-0.53353675,-1.38719525,-0.07872,-0.9183655,0.3210905,11.720736868754326,19.276851639807774,
2023-07-25 18:19:05.140,-0.36585375,-0.640244,-1.4786584999999999,-0.07991025,-0.91850275,0.3230895,11.63354398906235,19.370812182656927,
2023-07-25 18:19:05.160,-0.487805,-0.97561,-1.35670725,-0.0767825,-0.919754,0.32154825,11.525515997018475,19.1708150534491,
2023-07-25 18:19:05.180,-0.5487807499999999,-1.14329275,-1.4634144999999998,-0.07829275,-0.9190214999999999,0.32048025,11.592065330190525,19.208295022520176,
2023-07-25 18:19:05.200,-0.5792682499999999,-1.29573175,-1.41768275,-0.07728575,-0.91893,0.31945825,11.521217396192375,19.136085222562524,
2023-07-25 18:19:05.220,-0.5243903999999999,-1.4146342,-1.4512196,-0.076465,-0.9176636,0.32109360000000003,11.52586231656756,19.40046061604948,
2023-07-25 18:19:05.240,-0.51829275,-1.85975625,-1.402439,-0.07789625,-0.91958625,0.3230135,11.529180933269576,19.3716209599926,
2023-07-25 18:19:05.260,-0.472561,-2.25609775,-1.280488,-0.079681,-0.9178925,0.32205225,11.64404631951315,19.3220377900708,
2023-07-25 18:19:05.280,-0.30487775,-2.5609755,-1.387195,-0.0773165,-0.91973875,0.32011425,11.535701130228025,19.284756334930325,
2023-07-25 18:19:05.300,-0.44207325,-2.6676830000000002,-1.34146325,-0.076767,-0.91893025,0.32167075,11.461899252565274,19.322130040594974,
2023-07-25 18:19:05.320,-0.457317,-2.91158525,-1.26524375,-0.07531725,-0.91865525,0.3203735,11.392462916371825,19.207504398164374,
2023-07-25 18:19:05.340,-0.5945119999999999,-3.1859755,-1.06707325,-0.0747525,-0.9190825,0.319321,11.546844487168201,19.1764451728468,
2023-07-25 18:19:05.360,-0.929878,-3.5213415,-0.7164635,-0.075699,-0.920578,0.32400525,11.369471440453475,19.405502980773498,
2023-07-25 18:19:05.380,-0.945122,-4.131097499999999,-0.65548775,-0.07749925,-0.9171905,0.32453925,11.517878817638476,19.4362408025594,
2023-07-25 18:19:05.400,-1.0365855,-4.71036625,-0.56402425,-0.07444775000000001,-0.9168855,0.32373050000000003,11.349938360739825,19.4388278869231,
2023-07-25 18:19:05.420,-1.09756075,-5.0,-0.42682925,-0.074066,-0.91859425,0.31974800000000003,11.3954453066216,19.067955017414377,
2023-07-25 18:19:05.440,-1.23475625,-5.167683,-0.35060975,-0.071686,-0.918915,0.31758074999999997,11.173363591932825,19.0405803910185,
2023-07-25 18:19:05.460,-1.2042682500000002,-4.9237804999999994,-0.44207325,-0.0717925,-0.91870125,0.31872575000000003,11.25309249140395,19.1573392853522,
2023-07-25 18:19:05.480,-0.99085375,-5.04573175,0.015244000000000008,-0.07371525,-0.91418475,0.3173525,11.31247190497325,19.097105573811376,
2023-07-25 18:19:05.500,-1.52439025,-5.198171,0.9603659999999999,-0.0742035,-0.91723625,0.31726075,11.373428780690775,19.050931319992575,
2023-07-25 18:19:05.520,-1.98170725,-5.71646375,1.41768275,-0.0731505,-0.920761,0.3164825,11.13974434412555,18.914901476231023,
2023-07-25 18:19:05.540,-2.362805,-6.29573175,1.1890245,-0.07350175,-0.92192075,0.3154905,11.412168970785475,18.7987720622216,
2023-07-25 18:19:05.560,-2.2408535,-6.722561,1.00609775,-0.074036,-0.9176025,0.31413275,11.3112845284933,18.830717841740224,
2023-07-25 18:19:05.580,-1.9969515,-6.920732,1.3109755,-0.07281499999999999,-0.920532,0.315689,11.232553520918875,18.975567156829523,
2023-07-25 18:19:05.600,-1.585366,-7.2713415,1.265244,-0.07421875,-0.923538,0.31361375,11.314810477427825,18.73699443679215,
2023-07-25 18:19:05.620,-1.2682924,-7.4268292,0.9390243999999999,-0.07408440000000001,-0.9233398000000002,0.3125976,11.393526737296899,18.6645417469275,
2023-07-25 18:19:05.640,-0.8993905,-7.515244,0.7012195,-0.07264699999999999,-0.92323325,0.3122255,11.126083375394575,18.65677701919965,
2023-07-25 18:19:05.660,-0.85365875,-7.37804875,0.65548775,-0.07153324999999999,-0.92260725,0.31433125,11.212012876486424,18.816361687461402,
2023-07-25 18:19:05.680,-0.77743925,-7.17987825,0.60975625,-0.0758515,-0.92214975,0.31265275000000003,11.451205273851,18.66241737943055,
2023-07-25 18:19:05.700,-0.97560975,-6.9969515,0.503049,-0.07307425000000001,-0.919647,0.311798,11.329378986525125,18.748070283825275,
2023-07-25 18:19:05.720,-1.0060975,-6.9969515,0.80792725,-0.07250999999999999,-0.92031875,0.3156585,11.18505209086955,18.9286743331502,
2023-07-25 18:19:05.740,-1.0060975,-7.08841475,0.8231705,-0.0742035,-0.9193115000000001,0.31602475,11.336843381518776,18.960285820361626,
2023-07-25 18:19:05.760,-1.0365855,-7.30182925,0.777439,-0.07458475,-0.9205475000000001,0.31596375,11.417817498071276,19.010036809389227,
2023-07-25 18:19:05.780,-1.03658525,-7.60670775,0.94512175,-0.07609575,-0.91990675,0.315521,11.447654504312325,18.8704985788813,
2023-07-25 18:19:05.800,-1.23475625,-7.789634250000001,0.8231707500000001,-0.073761,-0.9197234999999999,0.31608575,11.316018008556576,18.953993314733076,
2023-07-25 18:19:05.820,-1.4329269999999998,-7.8353660000000005,0.625,-0.07312025,-0.9226227499999999,0.31369025,11.337353548748824,18.77183285872325,
2023-07-25 18:19:05.840,-1.6463415,-8.01829275,0.320122,-0.072937,-0.9211579999999999,0.314377,11.300856747693425,18.7860411159414,
2023-07-25 18:19:05.860,-1.890244,-8.307927249999999,0.42682925,-0.0708465,-0.919388,0.3172,11.09803013930225,18.9518710163509,
2023-07-25 18:19:05.880,-2.057927,-8.7500005,0.655488,-0.0722505,-0.9174804999999999,0.31701674999999996,11.25306738918305,19.064661189513775,
2023-07-25 18:19:05.900,-2.2103657500000002,-9.25304875,1.14329275,-0.0711975,-0.92044075,0.31646725,11.146908042569226,18.971953040898974,
2023-07-25 18:19:05.920,-2.07317075,-9.679878500000001,1.3109755,-0.0704805,-0.9223785,0.31344625000000004,11.142976132993951,18.7015622515804,
2023-07-25 18:19:05.940,-1.9664635,-9.95426875,1.417683,-0.07121274999999999,-0.9214175,0.311844,11.198796966326325,18.639297903043477,
2023-07-25 18:19:05.960,-1.9359755,-10.167683,1.6158537499999999,-0.06896975,-0.923523,0.31130975,11.121051024572475,18.645764858093727,
2023-07-25 18:19:05.980,-2.05792675,-10.685976,1.44817075,-0.06968675,-0.92120375,0.31401049999999997,11.18668088176165,18.7956143001428,
2023-07-25 18:19:06.000,-1.9359757499999999,-11.0975615,1.6615855,-0.068466,-0.9207,0.31254575,11.040123767323625,18.706329695873976,
2023-07-25 18:19:06.020,-2.1493902499999997,-11.4786585,1.81402425,-0.070496,-0.922531,0.311554,11.157005377750925,18.671930476119424,
2023-07-25 18:19:06.040,-2.1707316,-11.695121799999999,2.085366,-0.06846920000000001,-0.9203858,0.3106934,10.8830311084064,18.665685676722898,
2023-07-25 18:19:06.060,-2.33231725,-11.935976,2.2713417500000004,-0.06828325,-0.9211885,0.311432,11.0144725630508,18.676346499048226,
2023-07-25 18:19:06.080,-2.48475625,-12.4542685,3.0335365,-0.070862,-0.9171294999999999,0.31472775000000003,11.262529477174775,18.9503094447765,
2023-07-25 18:19:06.100,-2.7286585,-13.53658575,3.6890245,-0.07197575,-0.9171907499999999,0.3152925,11.27798089892535,19.015521542961324,
2023-07-25 18:19:06.120,-3.14024375,-14.67987825,3.93292675,-0.07484425,-0.9191437499999999,0.31591775,11.4259235229224,18.8994238707399,
2023-07-25 18:19:06.140,-3.8262195,-16.0213415,4.6341465,-0.074936,-0.9217985,0.314438,11.341394399283825,18.821174748170375,
2023-07-25 18:19:06.160,-4.1310975,-17.25609825,4.573171,-0.07582074999999999,-0.9215694999999999,0.31623825,11.3741268554959,18.995562322938575,
2023-07-25 18:19:06.180,-4.11585325,-18.30792725,4.72560975,-0.0743255,-0.922821,0.31425475,11.472595738439825,18.803523725386974,
2023-07-25 18:19:06.200,-3.75,-19.131097750000002,4.847561,-0.07460025,-0.9221955,0.31021125,11.358854647147126,18.55712431452255,
2023-07-25 18:19:06.220,-3.56707325,-19.8780495,5.13719525,-0.07264725,-0.92239375,0.308197,11.249347645831675,18.449697475616052,
2023-07-25 18:19:06.240,-3.73475625,-20.564025,5.03048775,-0.07589725,-0.92276,0.3096465,11.45283688691775,18.47930022821875,
2023-07-25 18:19:06.260,-3.7347565,-21.097562,5.167683,-0.07505775,-0.92265325,0.307785,11.4806865841004,18.461665831212798,
2023-07-25 18:19:06.280,-3.597561,-21.570122,5.442073,-0.07215875,-0.92448425,0.30769325000000003,11.25548294435385,18.367409775357352,
2023-07-25 18:19:06.300,-3.3841465,-22.02743975,5.44207325,-0.07487475,-0.9240265,0.30668625,11.462886228082574,18.386368394031848,
2023-07-25 18:19:06.320,-3.7195122499999997,-22.271342,5.7774392500000005,-0.07537825000000001,-0.920212,0.303009,11.49092194820665,18.1916686847143,
2023-07-25 18:19:06.340,-4.23780475,-22.728659,6.14329275,-0.0773165,-0.92132575,0.30192575,11.677333044722175,18.153367169979425,
2023-07-25 18:19:06.360,-4.8780485,-23.20121975,6.295732,-0.078186,-0.9223025,0.30220025,11.60287419315025,18.132346062960625,
2023-07-25 18:19:06.380,-5.13719525,-23.795732,6.3871952499999995,-0.075394,-0.9222565,0.30285625,11.342967487935624,18.122582985979324,
2023-07-25 18:19:06.400,-5.24390275,-24.23780475,6.4024395,-0.078003,-0.926666,0.30017099999999997,11.6861260857202,17.904699736854198,
2023-07-25 18:19:06.420,-4.893293,-24.6036595,6.1432927500000005,-0.07817075,-0.9277345,0.2996675,11.61627881620825,17.853215792764423,
2023-07-25 18:19:06.440,-4.207317,-24.573172,5.70121975,-0.075882,-0.92987075,0.29530325,11.411483047835926,17.624625381085373,
2023-07-25 18:19:06.460,-3.795732,-24.3445125,5.2439025,-0.07460025,-0.9304505000000001,0.2937165,11.3342576558391,17.5543477808918,
2023-07-25 18:19:06.480,-3.61280475,-23.750001,4.7713415,-0.072998,-0.9307865,0.29009999999999997,11.207376083894275,17.2531068140194,
2023-07-25 18:19:06.500,-3.429878,-22.896341749999998,4.420732,-0.0733645,-0.92951975,0.289154,11.300765262498576,17.2449857407209,
2023-07-25 18:19:06.520,-3.4603657500000002,-21.8750005,4.375,-0.07312025,-0.9281922499999999,0.285858,11.130388248133976,17.150205610080373,
2023-07-25 18:19:06.540,-3.140244,-20.94512175,3.97865875,-0.0711975,-0.92700225,0.289154,11.139259873830925,17.326306440825,
2023-07-25 18:19:06.560,-2.88109725,-19.939025,3.96341475,-0.072052,-0.92494175,0.2877805,11.2040440896414,17.235096367457302,
2023-07-25 18:19:06.580,-2.7286585,-18.856708,4.222561,-0.07121275,-0.92395,0.2861635,11.114305264857425,17.18014743012175,
2023-07-25 18:19:06.600,-2.6097562,-17.878048999999997,4.4268294,-0.0683106,-0.9263670000000002,0.2876588,11.072058806358621,17.302232801643243,
2023-07-25 18:19:06.620,-2.545732,-16.99695175,4.32926825,-0.0680845,-0.929245,0.28834525,10.908926063772775,17.202996903401974,
2023-07-25 18:19:06.640,-2.484756,-16.265244,4.1310975,-0.07112125,-0.93110675,0.28573624999999997,11.079010509698525,17.003080687464802,
2023-07-25 18:19:06.660,-2.1189025,-15.7621955,3.795732,-0.06837475,-0.93037425,0.2870485,11.0606863899031,17.18384161642695,
2023-07-25 18:19:06.680,-1.81402425,-15.213414499999999,3.414634,-0.06869525,-0.93284625,0.28738425,11.071087992835425,17.110760072575225,
2023-07-25 18:19:06.700,-1.52439,-14.786586,2.94207325,-0.06701675,-0.93060325,0.286377,11.05315650045575,17.095730112523825,
2023-07-25 18:19:06.720,-1.43292675,-14.207317,2.54573175,-0.0698395,-0.931427,0.2870635,11.16633924037765,17.132096375047375,
2023-07-25 18:19:06.740,-1.341463,-13.704268749999999,2.4237805,-0.06985475,-0.92787175,0.28569025000000003,10.96791987554905,17.116675502059124,
2023-07-25 18:19:06.760,-1.14329275,-13.094512250000001,2.195122,-0.0719755,-0.92881775,0.288147,11.22646547244835,17.194006947079952,
2023-07-25 18:19:06.780,-0.91463425,-12.7286585,2.1493905,-0.0716705,-0.92881775,0.29008475,11.197061299976175,17.398002331896976,
2023-07-25 18:19:06.800,-0.777439,-12.256098,1.844512,-0.0680085,-0.9276735,0.2920075,10.96356071999395,17.453191748538625,
2023-07-25 18:19:06.820,-0.71646325,-12.02743975,1.9207317499999998,-0.06898525,-0.9283907499999999,0.29380775,11.03074499707715,17.591653569662924,
2023-07-25 18:19:06.840,-0.792683,-11.8140245,2.012195,-0.069992,-0.92410275,0.29299925,11.09367654554105,17.624792307545825,
2023-07-25 18:19:06.860,-0.92987825,-11.737805,2.2560977500000003,-0.070755,-0.92434675,0.29508975000000004,11.131646159002425,17.769151363049176,
2023-07-25 18:19:06.880,-1.08231725,-11.707317,2.545732,-0.07156375,-0.9248047500000001,0.29527275,11.171111424605176,17.689424740425423,
2023-07-25 18:19:06.900,-1.2804877499999998,-11.631097500000001,2.56097575,-0.07052599999999999,-0.9250182499999999,0.2954255,11.180745508197951,17.77024174575495,
2023-07-25 18:19:06.920,-1.554878,-11.52439025,2.6829270000000003,-0.0715025,-0.92678825,0.29565425,11.1845709442949,17.667468987521175,
2023-07-25 18:19:06.940,-1.57012175,-11.38719525,2.515244,-0.072159,-0.9256285,0.29473875,11.214374312654826,17.6848983682496,
2023-07-25 18:19:06.960,-1.5091462500000001,-11.097561500000001,2.30182925,-0.07322725,-0.92883325,0.296173,11.164480984154675,17.647436717337275,
2023-07-25 18:19:06.980,-1.1737805,-10.5945125,2.057927,-0.0706785,-0.92659,0.2908325,11.143053426374975,17.429774758882225,
2023-07-25 18:19:07.000,-1.0213415000000001,-9.893293,1.6158535,-0.071518,-0.9318845,0.28958125,11.13135199562665,17.23532531620105,
2023-07-25 18:19:07.020,-0.97560975,-9.039634,0.8536585,-0.07078575000000001,-0.9309385,0.28845225,11.222291415363975,17.195573235071425,
2023-07-25 18:19:07.040,-1.00609725,-8.003048999999999,0.27439025,-0.070572,-0.93005375,0.286682,11.149967978955125,17.168025796108925,
2023-07-25 18:19:07.060,-0.67073175,-6.99695125,-0.38109775,-0.067917,-0.9319152500000001,0.28800950000000003,10.976181326893425,17.137044619473826,
2023-07-25 18:19:07.080,-0.35060975,-5.70121975,-0.99085375,-0.07017525,-0.9283445,0.28709399999999996,11.0545936126493,17.1888832907416,
2023-07-25 18:19:07.100,-0.10670725,-4.31402425,-1.03658525,-0.06806925,-0.92533875,0.28233325,11.083911467807575,16.97891344423625,
2023-07-25 18:19:07.120,-0.5182925,-2.835366,-0.8689024999999999,-0.0691225,-0.92430125,0.28242475,11.014125486986876,16.971173380302552,
2023-07-25 18:19:07.140,-1.11280475,-1.7987805,-1.08231725,-0.07017525,-0.9289397500000001,0.28544625,11.161381043280025,17.0215059415325,
2023-07-25 18:19:07.160,-1.66158525,-1.03658525,-1.57012175,-0.07054125,-0.92921425,0.2867435,11.1081418856511,17.1412330291299,
2023-07-25 18:19:07.180,-1.661585,-0.44207325,-2.1646342499999998,-0.06652825000000001,-0.932068,0.28613299999999997,10.8358800834409,17.051831346215675,
2023-07-25 18:19:07.200,-1.2957315,0.1219515,-2.5,-0.06723024999999999,-0.93116775,0.287094,11.004732935245524,17.191714937169376,
2023-07-25 18:19:07.220,-0.68597575,0.5945125,-2.9420729999999997,-0.06697075,-0.93248,0.28675825,10.975360121824375,17.1663390928423,
2023-07-25 18:19:07.240,-0.21341475,1.0518290000000001,-3.0182925,-0.06367500000000001,-0.930771,0.28572074999999997,10.774928278492276,17.094854449230926,
2023-07-25 18:19:07.260,-0.015244,1.28048775,-3.094512,-0.06338525,-0.928299,0.28648375000000004,10.605359215293674,17.160661810917652,
2023-07-25 18:19:07.280,-0.10670725,1.4329269999999998,-2.7134145,-0.0648195,-0.924362,0.28695675,10.811198724087724,17.252621972769226,
2023-07-25 18:19:07.300,-0.24390225,1.47865875,-2.1189025,-0.06315625,-0.925705,0.288971,10.727936112780325,17.379516114078776,
2023-07-25 18:19:07.320,-0.22865850000000001,1.20426825,-1.84451225,-0.065918,-0.9287719999999999,0.29299925,10.896448083802024,17.46001496353085,
2023-07-25 18:19:07.340,2.5000000000025e-07,1.0060975,-1.7682927499999999,-0.066025,-0.928131,0.2901305,10.758503680888374,17.412074771657174,
2023-07-25 18:19:07.360,0.33536575,0.9603659999999999,-1.58536575,-0.064804,-0.9276735,0.289215,10.798310685121676,17.27203265344215,
2023-07-25 18:19:07.380,0.5487805,1.0060975,-1.4329265,-0.065094,-0.92962625,0.28927625,10.76863194346885,17.287432211909774,
2023-07-25 18:19:07.400,0.777439,1.0060975,-1.417683,-0.06649775,-0.92916875,0.29031375,11.006756796449125,17.4442773588628,
2023-07-25 18:19:07.420,0.7012195,0.86890225,-1.37195125,-0.06658925,-0.9278715,0.29010025,10.852491985967875,17.3833289771194,
2023-07-25 18:19:07.440,0.41158525,0.50304875,-1.4481705,-0.0673525,-0.92837525,0.29119849999999997,11.07267631319225,17.452967251509,
2023-07-25 18:19:07.460,0.0914635,0.137195,-1.60060975,-0.067703,-0.9271545,0.29080225,10.974082912549676,17.45349844133325,
2023-07-25 18:19:07.480,2.5000000000025e-07,-0.4115855,-1.50914625,-0.0679475,-0.925705,0.29158025,10.99159363326105,17.5038566850845,
2023-07-25 18:19:07.500,0.22865875,-0.777439,-1.3109757499999999,-0.065567,-0.9293215,0.29167175,10.8303578191155,17.392786956972202,
2023-07-25 18:19:07.520,0.487805,-1.20426825,-1.3109755,-0.06941225000000001,-0.92919925,0.292526,11.12947666564265,17.512142367220825,
2023-07-25 18:19:07.540,0.68597575,-1.6006095,-1.0213415,-0.068756,-0.92715475,0.29409775,10.9636268301422,17.608610810752726,
2023-07-25 18:19:07.560,0.71646325,-1.81402425,-1.0213415000000001,-0.06629925,-0.9282382499999999,0.29251125,10.81952613668615,17.48980162192235,
2023-07-25 18:19:07.580,0.80792675,-2.210366,-0.8689024999999999,-0.066681,-0.92549125,0.294861,10.92102162332695,17.673656880039275,
2023-07-25 18:19:07.600,0.3963415,-2.71341475,-0.8689025,-0.06700125,-0.9277495,0.2959595,10.860750131361801,17.762392119692727,
2023-07-25 18:19:07.620,0.1341462,-3.2439025999999997,-0.7560976,-0.0645628,-0.9247682000000002,0.29637440000000004,10.767192161681042,17.83636808039634,
2023-07-25 18:19:07.640,-0.2743905,-3.97865875,-0.289634,-0.06613175,-0.926346,0.29858425,10.8659167915104,17.828338865514873,
2023-07-25 18:19:07.660,-0.59451225,-4.893293,-0.19817075,-0.06791675,-0.92645275,0.3013,10.995790095856174,18.030405374494926,
2023-07-25 18:19:07.680,-0.67073175,-5.83841475,0.03048775,-0.06794725,-0.92631525,0.3007965,10.961704327280675,17.9827036601109,
2023-07-25 18:19:07.700,-0.80792675,-7.0121955,0.10670750000000001,-0.0662995,-0.924835,0.30075075,10.888912325679925,18.009014295857348,
2023-07-25 18:19:07.720,-1.1432925,-8.185976,0.59451225,-0.06687925,-0.924164,0.30094875,10.9691699320779,18.032431291793973,
2023-07-25 18:19:07.740,-1.265244,-9.43597575,1.02134175,-0.06552150000000001,-0.92681875,0.30018625,10.87603251332585,17.98936277248935,
2023-07-25 18:19:07.760,-1.4634144999999998,-10.5945125,1.097561,-0.06637575,-0.92901575,0.301758,10.77478118657375,17.94645485976355,
2023-07-25 18:19:07.780,-1.417683,-11.661585500000001,1.03658525,-0.06594825,-0.9283755,0.299118,11.0518255948251,17.8386077371133,
2023-07-25 18:19:07.800,-1.53963425,-12.4542685,1.08231675,-0.06452925,-0.92805475,0.29760775,10.78028247571315,17.743038025400725,
2023-07-25 18:19:07.820,-1.64634125,-13.0640245,0.8536585,-0.06309524999999999,-0.92881775,0.29736324999999997,10.637904260229249,17.753809704185073,
2023-07-25 18:19:07.840,-1.402439,-13.612805250000001,0.5640244999999999,-0.06283575,-0.93023675,0.2957,10.68564248934055,17.620415332935725,
2023-07-25 18:19:07.860,-1.2042685,-13.917683,0.53353675,-0.063278,-0.9303282500000001,0.296051,10.736993050433124,17.7128249164519,
2023-07-25 18:19:07.880,-0.9908535,-14.1158535,0.47256075,-0.064499,-0.92803925,0.291748,10.729741996583625,17.4710500392349,
2023-07-25 18:19:07.900,-0.96036625,-14.054878,0.8689025,-0.06283575,-0.9238740000000001,0.29057325,10.713713718034326,17.47167330279715,
2023-07-25 18:19:07.920,-1.554878,-13.96341475,1.6006095,-0.06405625,-0.926239,0.2894595,10.7726533044295,17.269933399082902,
2023-07-25 18:19:07.940,-1.8445125,-14.100609500000001,1.52439025,-0.06245425,-0.925644,0.28881825,10.716266534450625,17.28472320894555,
2023-07-25 18:19:07.960,-2.14939025,-14.26829275,1.69207325,-0.06274425,-0.930313,0.2917325,10.77120027873265,17.355062005264024,
2023-07-25 18:19:07.980,-2.012195,-14.8323175,1.60060975,-0.05925,-0.9307402499999999,0.2907715,10.344491405949274,17.229607362443925,
2023-07-25 18:19:08.000,-1.554878,-15.21341475,1.21951225,-0.0593415,-0.93281575,0.29273974999999997,10.427580996572726,17.455478773394425,
2023-07-25 18:19:08.020,-1.234756,-15.8384155,1.17378075,-0.059494,-0.9320525,0.29370125,10.390920417197124,17.46261093189605,
2023-07-25 18:19:08.040,-1.097561,-16.32622,0.807927,-0.0568085,-0.93249525,0.29055775,10.350016863189145,17.307867361015976,
2023-07-25 18:19:08.060,-1.14329275,-16.79878075,0.59451225,-0.057724,-0.9309695,0.29081725,10.440963764017075,17.3632138180259,
2023-07-25 18:19:08.080,-1.1890245,-17.02744,0.67073175,-0.054962250000000004,-0.92976375,0.29022225,10.153000619634152,17.367210953625175,
2023-07-25 18:19:08.100,-1.3109755,-17.1951225,1.05182925,-0.05368025,-0.9269715000000001,0.29071025,10.206028710558025,17.431681678187225,
2023-07-25 18:19:08.120,-1.46341475,-17.3628055,1.35670725,-0.05245975,-0.9282225,0.29026775,9.95969779254892,17.4422074207118,
2023-07-25 18:19:08.140,-1.50914625,-17.423781,1.46341475,-0.04875175,-0.92715475,0.29054275,9.798188241668088,17.398567380567776,
2023-07-25 18:19:08.160,-1.5853657499999998,-17.4542685,1.66158525,-0.050354,-0.92697175,0.28974925,9.892670824329631,17.278263053076202,
2023-07-25 18:19:08.180,-1.9664635,-17.3475615,1.905488,-0.04736325,-0.9284669999999999,0.29158,9.732821041716058,17.4246147591959,
2023-07-25 18:19:08.200,-2.332317,-17.4237805,1.8140245,-0.048401,-0.9301605,0.29042049999999997,9.817332075953345,17.37000576229275,
2023-07-25 18:19:08.220,-2.86585375,-17.469512,1.9359757499999999,-0.049896499999999996,-0.930725,0.28823825,9.987563051924075,17.2526265804732,
2023-07-25 18:19:08.240,-3.21646325,-17.591464000000002,1.79878075,-0.048584249999999995,-0.930496,0.287201,9.963007470390242,17.10784572403345,
2023-07-25 18:19:08.260,-3.5213415,-17.743902,1.7682924999999998,-0.0469055,-0.93225075,0.28602574999999997,9.730852107526387,17.02287540457895,
2023-07-25 18:19:08.280,-3.445122,-17.774389999999997,1.6006097499999998,-0.0489195,-0.9320375,0.28721625,9.8482183582832,17.180331061055853,
2023-07-25 18:19:08.300,-3.1249997499999997,-17.9878045,1.722561,-0.048202499999999995,-0.9313352500000001,0.2865905,9.774631658682873,17.0021550240895,
2023-07-25 18:19:08.320,-2.92682925,-18.07926875,1.78353675,-0.04650875,-0.93394475,0.28698725,9.70280234035095,17.07436075016165,
2023-07-25 18:19:08.340,-2.56097575,-18.26219575,1.7530485,-0.0480805,-0.93501275,0.28665175,9.850227987135714,17.0211163359414,
2023-07-25 18:19:08.360,-2.08841475,-18.414635,1.4634147499999999,-0.04627975,-0.93296825,0.285324,9.772504795574093,17.01026169066865,
2023-07-25 18:19:08.380,-1.72256125,-18.4298785,1.52439025,-0.04418925,-0.9331055,0.286621,9.545370568271647,17.1158845584105,
2023-07-25 18:19:08.400,-0.76219525,-17.987805,1.49390225,-0.044403,-0.933304,0.287567,9.51870036729968,17.077924362815175,
2023-07-25 18:19:08.420,0.503049,-17.515244,2.195122,-0.04328875,-0.93182375,0.286972,9.527917592988508,17.1203545575218,
2023-07-25 18:19:08.440,1.4786585,-17.393293,2.80487775,-0.041320749999999996,-0.9269865,0.289917,9.352666612068205,17.32963242844155,
2023-07-25 18:19:08.460,1.8292682500000002,-17.591464000000002,3.2164635,-0.0393065,-0.928238,0.28942875,9.345494098458715,17.331122302284676,
2023-07-25 18:19:08.480,1.1585365,-17.65244,3.29268275,-0.040802,-0.92712375,0.28831475,9.424295150800818,17.273424046578675,
2023-07-25 18:19:08.500,-0.0914635,-17.6371955,3.2012195,-0.04028325,-0.9295042499999999,0.2852325,9.29329352374162,17.018045150082425,
2023-07-25 18:19:08.520,-1.3414635000000001,-17.317074,2.987805,-0.04034425,-0.93000775,0.28317275,9.306083175082023,16.941211868189775,
2023-07-25 18:19:08.540,-2.3475610000000002,-16.996952,3.0640245,-0.04095475,-0.93225125,0.28372175,9.309007197457078,16.93050111349445,
2023-07-25 18:19:08.560,-2.7896342499999998,-16.554878000000002,2.97256125,-0.039322,-0.934494,0.28500375,9.32894676943839,17.02136490239505,
2023-07-25 18:19:08.580,-2.89634125,-16.25,2.5609755,-0.03947425,-0.937271,0.28674299999999997,9.319603723706123,16.96140695113875,
2023-07-25 18:19:08.600,-2.66768275,-16.0365855,2.1189025,-0.03750625,-0.93432625,0.2845,9.217376994651119,17.000194621333,
2023-07-25 18:19:08.620,-2.2865855,-15.5487805,1.6158537499999999,-0.0372925,-0.9345245,0.2818755,9.184357342838934,16.768382160604922,
2023-07-25 18:19:08.640,-1.9512194999999999,-15.07622,1.1432925,-0.038558999999999996,-0.9347075,0.28005975,9.27051232365373,16.727040238998377,
2023-07-25 18:19:08.660,-1.597561,-14.4878052,0.6829270000000001,-0.0344236,-0.9363768,0.28165300000000004,8.999932801593602,16.668940996677783,
2023-07-25 18:19:08.680,-0.9451222499999999,-13.96341475,0.28963425,-0.03308125,-0.936432,0.28312675,8.822507099130398,16.8494068054561,
2023-07-25 18:19:08.700,-0.62500025,-13.39939075,0.22865825,-0.035614,-0.93478375,0.279068,9.090873059680256,16.6291363152509,
2023-07-25 18:19:08.720,-0.50304875,-12.408536999999999,0.3810975,-0.03630075,-0.9310915,0.2778625,9.200977967785906,16.5876029137518,
2023-07-25 18:19:08.740,-0.76219525,-11.448171,1.03658525,-0.03608725,-0.92973325,0.276199,9.058952051134128,16.547201700926927,
2023-07-25 18:19:08.760,-1.14329275,-10.59451275,1.4634144999999998,-0.034775,-0.9299317500000001,0.27841175,9.077213342246175,16.66001503134415,
2023-07-25 18:19:08.780,-1.55487775,-9.923781,1.402439,-0.03369125,-0.93136625,0.2807465,9.147758128297868,16.790027407574748,
2023-07-25 18:19:08.800,-1.722561,-9.64939075,1.43292675,-0.031356999999999996,-0.93376175,0.28198225,8.86160576180282,16.843796908140824,
2023-07-25 18:19:08.820,-1.402439,-9.466463999999998,1.21951225,-0.03363025,-0.93559275,0.28349325000000003,8.95599639480102,16.86418164933215,
2023-07-25 18:19:08.840,-0.807927,-9.420732,0.8231707500000001,-0.031769,-0.93687425,0.28456125,8.809247200680717,16.8312907774859,
2023-07-25 18:19:08.860,-0.33536575,-9.329268,0.50304875,-0.032776,-0.9364625,0.28335575,8.96744569887295,16.793743422771676,
2023-07-25 18:19:08.880,0.182927,-9.00914625,0.24390225000000001,-0.03027325,-0.9342652499999999,0.28350825,8.705091082822875,16.840813139253424,
2023-07-25 18:19:08.900,0.640244,-8.50609775,0.457317,-0.0315705,-0.93444825,0.2828675,8.980157288820983,16.813385065708825,
2023-07-25 18:19:08.920,0.8841465,-8.0792685,0.59451225,-0.030899000000000003,-0.9322509999999999,0.28308125,8.766902191423528,16.807283934221925,
2023-07-25 18:19:08.940,0.96036575,-7.637195500000001,0.56402475,-0.031128,-0.933609,0.2861785,8.795944458289497,17.112469391790423,
2023-07-25 18:19:08.960,1.20426825,-7.36280475,0.5945125,-0.0302275,-0.9310302500000001,0.28701774999999996,8.821451944258948,17.23298621223275,
2023-07-25 18:19:08.980,1.21951225,-7.057927,0.518293,-0.0330045,-0.93037425,0.28764325,8.937850420176922,17.1850700243331,
2023-07-25 18:19:09.000,1.0060975,-6.92073175,0.73170725,-0.030701,-0.9297485,0.2880705,8.796624250182363,17.176792268700375,
2023-07-25 18:19:09.020,0.32012225,-6.75304875,0.762195,-0.032668749999999996,-0.93020625,0.287857,8.833087328939335,17.221840818426525,
2023-07-25 18:19:09.040,-0.51829275,-6.6310975,0.83841475,-0.03096,-0.92964175,0.2872925,8.842643246185055,17.167424126754,
2023-07-25 18:19:09.060,-1.387195,-6.4939025,0.746951,-0.0332185,-0.9280395,0.2857055,8.89483400154313,17.0353974728454,
2023-07-25 18:19:09.080,-1.9664632499999999,-6.25,0.99085375,-0.032776,-0.93048075,0.28443925000000003,8.925480938428993,16.993926490422975,
2023-07-25 18:19:09.100,-2.1493902499999997,-6.0213415,1.41768275,-0.032486,-0.93153375,0.28265375,8.971733436122747,16.81607555855775,
2023-07-25 18:19:09.120,-2.1646342499999998,-5.9146345,1.280488,-0.032898000000000004,-0.9350127500000001,0.284027,8.879526728836602,16.972331045454226,
2023-07-25 18:19:09.140,-2.02743925,-5.792683500000001,1.06707325,-0.03172325,-0.9353485,0.284149,8.85212758730008,16.900864567418473,
2023-07-25 18:19:09.160,-1.66158525,-5.640244,0.68597575,-0.033127,-0.93591325,0.281311,8.928696478614775,16.700218889110076,
2023-07-25 18:19:09.180,-1.29573175,-5.41158525,0.3810975,-0.031555,-0.935562,0.280365,8.905931287291603,16.65914785938735,
2023-07-25 18:19:09.200,-1.03658525,-4.96951225,0.152439,-0.03132625,-0.9362945,0.27961725,8.8709877631847,16.514157022051126,
2023-07-25 18:19:09.220,-1.02134125,-4.4817072499999995,-0.28963425,-0.030243,-0.93504325,0.2789155,8.855819252442188,16.57535476572535,
2023-07-25 18:19:09.240,-1.097561,-3.8719514999999998,-0.53353675,-0.03350825,-0.9353945,0.27864075,8.863126141140812,16.582983216530224,
2023-07-25 18:19:09.260,-1.11280475,-3.21646325,-0.70121975,-0.03411875,-0.93519575,0.280716,8.96064942516285,16.75124408246935,
2023-07-25 18:19:09.280,-0.96036575,-2.7134145,-0.777439,-0.032074,-0.9331055,0.280655,8.80077688694398,16.79155829029085,
2023-07-25 18:19:09.300,-0.67073175,-2.4390245,-0.94512175,-0.03367625,-0.9341125,0.27847299999999997,8.889901385592113,16.574043376048273,
2023-07-25 18:19:09.320,-0.503049,-2.0884145,-0.9451222499999999,-0.03199775,-0.933014,0.28077675,8.8766696905314,16.719807366778326,
2023-07-25 18:19:09.340,-0.487805,-1.93597575,-0.65548825,-0.0326845,-0.931305,0.28103625,8.899845646681564,16.818310128694776,
2023-07-25 18:19:09.360,-0.640244,-1.844512,-0.472561,-0.0312805,-0.931381,0.28120425,8.827274256455617,16.8010943471756,
2023-07-25 18:19:09.380,-0.77743925,-1.85975625,-0.4115855,-0.0337525,-0.9349975,0.279953,8.980873852209243,16.677421531864525,
2023-07-25 18:19:09.400,-0.945122,-1.96646375,-0.24390225,-0.03421025,-0.9345095,0.27897649999999996,9.049305636877563,16.606459655755224,
2023-07-25 18:19:09.420,-1.03658525,-1.859756,-0.12195125000000001,-0.034866499999999995,-0.93447875,0.28024275,9.01190611916563,16.73892386586575,
2023-07-25 18:19:09.440,-0.80792675,-2.057927,-0.07621975,-0.035309,-0.935028,0.28050225,9.070865629077312,16.73792201038775,
2023-07-25 18:19:09.460,-0.64024375,-2.164634,0.01524375,-0.03294375,-0.9340517500000001,0.280365,8.904108427134553,16.77550198891265,
2023-07-25 18:19:09.480,-0.24390225,-2.45426825,0.0914635,-0.03379825,-0.9348145,0.28208925,8.97213127663205,16.8556786212584,
2023-07-25 18:19:09.500,-0.10670750000000001,-2.69817075,-0.07621975,-0.034805249999999996,-0.9350890000000001,0.279404,9.063814963662537,16.697359968549275,
2023-07-25 18:19:09.520,-0.0762195,-3.0182925,-0.22865850000000001,-0.0350495,-0.93719475,0.2798615,9.076002908459067,16.6135871164051,
2023-07-25 18:19:09.540,-0.06097575,-3.17073175,-0.36585375,-0.0331115,-0.9357297499999999,0.27880875,8.977122516086938,16.6286915134615,
2023-07-25 18:19:09.560,0.0,-3.30792675,-0.792683,-0.032058500000000004,-0.937088,0.28195175,8.892274945802868,16.732674716492276,
2023-07-25 18:19:09.580,0.472561,-3.20121975,-1.1280489999999999,-0.03402725,-0.93482975,0.28030375,8.936395490987458,16.66724082936885,
2023-07-25 18:19:09.600,1.00609725,-2.85061,-0.640244,-0.03414925,-0.93258675,0.27745074999999997,8.991842222051936,16.502086285381573,
2023-07-25 18:19:09.620,1.14329275,-2.454268,0.16768275,-0.035675,-0.932175,0.27796925,9.139160005552867,16.7496168680773,
2023-07-25 18:19:09.640,0.823171,-2.2713417500000004,0.289634,-0.0375825,-0.93356325,0.27882399999999996,9.102028556294508,16.679475352811398,
2023-07-25 18:19:09.660,0.44207325,-2.362805,0.19817075,-0.036346250000000004,-0.9325715,0.28094474999999997,9.14936167459643,16.751000746216626,
2023-07-25 18:19:09.680,0.2439025,-2.46951225,0.18292675,-0.03651425,-0.933441,0.282547,9.035922618497457,16.814463728501977,
2023-07-25 18:19:09.700,0.0609756,-2.8658533999999998,-0.1219512,-0.035510200000000006,-0.9352295999999999,0.2823608,9.055666752958171,16.83544455044214,
2023-07-25 18:19:09.720,0.10670725,-3.20121975,-0.5335365,-0.034363,-0.935608,0.28547675,9.019067587574783,16.99573354406055,
2023-07-25 18:19:09.740,0.36585375,-3.55182925,-0.472561,-0.03538525,-0.93362425,0.282898,9.01453502021983,16.871343726085975,
2023-07-25 18:19:09.760,0.3810975,-3.7042685,-0.41158525,-0.034607,-0.934311,0.282593,8.95450904991013,16.830313371526675,
2023-07-25 18:19:09.780,0.56402475,-3.90243925,-0.15243925,-0.03408825,-0.93168625,0.2828215,8.961522681244093,16.881675464940024,
2023-07-25 18:19:09.800,0.80792725,-3.8871952500000004,0.2439025,-0.03154,-0.93406675,0.2842865,8.798501497397343,17.013921397904426,
2023-07-25 18:19:09.820,0.96036575,-3.93292675,0.45731725,-0.034652749999999996,-0.9322509999999999,0.28517175,8.975645008920836,17.084588806529275,
2023-07-25 18:19:09.840,0.97560975,-4.054878,0.32012175,-0.033356,-0.9322205,0.28587375000000004,8.949373343287528,16.9342895481681,
2023-07-25 18:19:09.860,0.89939025,-4.192073,0.335366,-0.032898,-0.9306795,0.2866515,9.003391634798636,17.047295162624422,
2023-07-25 18:19:09.880,0.76219525,-4.207317,0.53353675,-0.033905,-0.9306795,0.28643775,8.894654769061468,17.12794157595005,
2023-07-25 18:19:09.900,0.44207325,-4.222561,0.51829275,-0.0351715,-0.931061,0.286316,9.048803400185157,17.103983744444974,
2023-07-25 18:19:09.920,0.15243925,-4.237805,0.518293,-0.03712475,-0.931671,0.28384375,9.186864134901713,16.95420788883425,
2023-07-25 18:19:09.940,-0.289634,-4.2835365,0.5945119999999999,-0.0344695,-0.93293775,0.28468325,8.912365759921077,16.922352505452075,
2023-07-25 18:19:09.960,-0.5640245,-4.222561,0.7317072499999999,-0.036957000000000004,-0.932846,0.2852475,9.203704676946307,17.02899594471525,
2023-07-25 18:19:09.980,-0.594512,-4.31402425,0.5945119999999999,-0.03785725,-0.93144225,0.28376775,9.288647142695915,16.905565980736824,
2023-07-25 18:19:10.000,-0.79268325,-4.3445125,0.51829275,-0.036788749999999995,-0.934143,0.28344725,9.162548570211868,16.87625559158155,
2023-07-25 18:19:10.020,-0.65548775,-4.405488,0.3506095,-0.035904,-0.93440225,0.28282175,9.13244960184507,16.802553846718524,
2023-07-25 18:19:10.040,-0.518293,-4.207317,0.304878,-0.036911,-0.93551625,0.28132625,9.094683522858531,16.663373908665875,
2023-07-25 18:19:10.060,-0.35060975,-4.1463415,0.09146325,-0.034851,-0.9350127500000001,0.28298975,8.945448638631747,16.788174479491452,
2023-07-25 18:19:10.080,-0.182927,-3.8414635,-0.25914625,-0.03385925,-0.933426,0.28016675,9.019769771956257,16.687402000217975,
2023-07-25 18:19:10.100,0.015244,-3.5213415,-0.3963415,-0.034088,-0.935211,0.2809295,8.958406808648135,16.750135537259524,
2023-07-25 18:19:10.120,0.2591465,-3.2774389999999998,-0.27439,-0.03364575,-0.9328765,0.2819215,8.977746137415433,16.837631578317126,
2023-07-25 18:19:10.140,0.42682925,-3.064024,-0.0609755,-0.034057500000000004,-0.93243425,0.2833555,8.877434021578551,16.859567411031225,
2023-07-25 18:19:10.160,0.4115855,-2.94207325,0.01524375,-0.03401175,-0.9340515,0.28421025,8.892738090613605,16.885563686272,
2023-07-25 18:19:10.180,0.304878,-2.9573169999999998,0.12195125000000001,-0.03475975,-0.932434,0.28533925,8.994511068347201,16.951600625542,
2023-07-25 18:19:10.200,0.18292675,-2.91158525,0.18292675,-0.033951,-0.93093875,0.282883,8.97594225744451,16.896429694251175,
2023-07-25 18:19:10.220,-0.045732,-2.98780475,0.30487825,-0.035309,-0.93315125,0.2816925,9.094068237466487,16.889025484708426,
2023-07-25 18:19:10.240,-0.13719525,-3.0030487499999996,0.28963425,-0.035491999999999996,-0.9348605,0.28353875,9.056393159694418,16.831632381887502,
2023-07-25 18:19:10.260,-0.22865825,-2.972561,0.60975625,-0.03549225,-0.93305975,0.282242,9.218212931899409,16.82510253393815,
2023-07-25 18:19:10.280,-0.289634,-2.8963415,0.503049,-0.0370635,-0.933304,0.28367600000000004,9.212282014581788,16.86586264330515,
2023-07-25 18:19:10.300,-0.4420735,-2.942073,0.304878,-0.037414499999999996,-0.9341127499999999,0.28405749999999996,9.140258726271613,16.955861771604873,
2023-07-25 18:19:10.320,-0.59451225,-2.926829,0.16768275,-0.037964,-0.93563825,0.28242475,9.178008291184405,16.7824810344097,
2023-07-25 18:19:10.340,-0.51829275,-3.04878025,0.0457315,-0.03771975,-0.93396,0.28253174999999997,9.20723011735261,16.764923131815276,
2023-07-25 18:19:10.360,-0.4268295,-3.0030485,-0.22865850000000001,-0.039444,-0.936859,0.28274525,9.359787484560018,16.76880471901425,
2023-07-25 18:19:10.380,-0.30487825,-3.0030487499999996,-0.44207325,-0.037674,-0.9379730000000001,0.28102125,9.271316152120775,16.691350584501425,
2023-07-25 18:19:10.400,-0.27439,-2.98780475,-0.7012195,-0.03862,-0.93302925,0.280075,9.285658426571326,16.701806941194576,
2023-07-25 18:19:10.420,-0.2286585,-2.89634175,-0.71646325,-0.0370025,-0.93380725,0.27958649999999996,9.18966468170875,16.62241465693345,
2023-07-25 18:19:10.440,-0.27439,-2.8506095,-1.06707325,-0.037201,-0.93580625,0.27827475,9.219967485112726,16.576791280143098,
2023-07-25 18:19:10.460,-0.121951,-2.75914625,-1.1737805,-0.0341185,-0.93632525,0.28161625,9.016494194898193,16.810460261935326,
2023-07-25 18:19:10.480,0.2134145,-2.57621925,-1.49390225,-0.034836,-0.9364015,0.28096,9.078718676337028,16.675910338139225,
2023-07-25 18:19:10.500,0.5640244999999999,-2.08841475,-1.1737805,-0.03584275,-0.932083,0.27752675,9.19282367372184,16.6438986880309,
2023-07-25 18:19:10.520,0.457317,-1.554878,-0.3810975,-0.0359955,-0.931488,0.27563475000000004,9.157668642144637,16.53214794863335,
2023-07-25 18:19:10.540,0.24390225,-1.3109757499999999,-0.2286585,-0.035599,-0.9313355,0.2782135,9.073384614194723,16.607868060328748,
2023-07-25 18:19:10.560,-0.152439,-1.31097525,-0.320122,-0.036392,-0.93168625,0.28004450000000003,9.18992123204864,16.758425063460827,
2023-07-25 18:19:10.580,-0.2134145,-1.539634,-0.503049,-0.03765875,-0.93499725,0.28234875,9.314918551439636,16.7854999491815,
2023-07-25 18:19:10.600,-0.10670750000000001,-1.84451225,-0.9908537500000001,-0.034744,-0.93688975,0.28175325,9.065848850559508,16.686777780015525,
2023-07-25 18:19:10.620,0.06097575,-2.012195,-1.43292675,-0.03594975,-0.9369047500000001,0.28288274999999996,8.98500166564373,16.858226519494774,
2023-07-25 18:19:10.640,0.060976,-1.9969515,-1.66158525,-0.03544625,-0.9350735,0.282669,9.065010936044946,16.7982665098683,
2023-07-25 18:19:10.660,0.12195125000000001,-1.905488,-1.52439025,-0.033844,-0.9336242499999999,0.28048700000000004,8.898317457227513,16.708979314286974,
2023-07-25 18:19:10.680,0.3963415,-1.85975625,-1.32621925,-0.03355375,-0.93508925,0.280487,8.87981642789358,16.6839538947348,
2023-07-25 18:19:10.700,0.4115855,-1.6158535,-0.99085375,-0.0318755,-0.9318085,0.28007525,8.813737529994466,16.66948674847975,
2023-07-25 18:19:10.720,0.5945125,-1.554878,-1.02134175,-0.03224175,-0.935959,0.28359975,8.902014264397305,16.878252477939924,
2023-07-25 18:19:10.740,0.7195121999999999,-1.4878048,-1.1341466,-0.031884800000000005,-0.9332153999999999,0.2836302,8.781947000777885,16.947237069633,
2023-07-25 18:19:10.760,0.8536585,-1.4481709999999999,-1.1890242500000001,-0.03395075,-0.9308777500000001,0.28277575,9.018813991779423,16.887840829668875,
2023-07-25 18:19:10.780,0.70121925,-1.2042685,-0.83841475,-0.03161625,-0.9318845,0.282074,8.762173451796125,16.78529757805445,
2023-07-25 18:19:10.800,0.2896345,-1.11280475,-0.83841475,-0.033142,-0.93170175,0.284088,9.05086227626135,16.9203271578862,
2023-07-25 18:19:10.820,-0.19817075,-1.14329275,-0.74695125,-0.03544625,-0.930847,0.281311,8.9605983132725,16.816664584439874,
2023-07-25 18:19:10.840,-0.5487805,-1.14329275,-0.5335365,-0.0354615,-0.93138125,0.28433200000000003,9.094111723097651,17.034611073520274,
2023-07-25 18:19:10.860,-0.655488,-1.05182925,-0.5640244999999999,-0.0342255,-0.93295275,0.2832945,8.929269018825455,16.894092405434623,
2023-07-25 18:19:10.880,-0.5792682499999999,-1.15853675,-0.68597575,-0.03543075,-0.935669,0.283081,9.149393369875176,16.872293598931023,
2023-07-25 18:19:10.900,-0.3963415,-1.1890245,-0.71646325,-0.03569025,-0.93739325,0.28111274999999997,9.182558031828416,16.6558392071333,
2023-07-25 18:19:10.920,-0.152439,-1.23475625,-0.80792675,-0.03263875,-0.935043,0.28096,8.951496021578656,16.719418533275725,
2023-07-25 18:19:10.940,0.12195125,-1.14329275,-0.914634,-0.0348815,-0.9368135,0.28091425000000003,8.96632306453246,16.671729527511225,
2023-07-25 18:19:10.960,0.3658535,-1.03658525,-1.112805,-0.034622,-0.936752,0.2791595,8.954955859637483,16.491867054957027,
2023-07-25 18:19:10.980,0.457317,-0.83841475,-1.219512,-0.031997750000000005,-0.93432625,0.27946475,8.940707261289397,16.588891562873073,
2023-07-25 18:19:11.000,0.42682925,-0.670732,-1.3109755,-0.03294375,-0.9347685,0.28079224999999997,8.859462678187775,16.72713744906905,
2023-07-25 18:19:11.020,0.51829275,-0.4420735,-1.23475625,-0.03195175,-0.93573,0.28193675,8.912097621179996,16.7428296664664,
2023-07-25 18:19:11.040,0.51829275,-0.41158525,-1.3109755,-0.03207375,-0.933899,0.28227225,8.94415462247092,16.815845554083324,
2023-07-25 18:19:11.060,0.5487805,-0.3658535,-1.32621975,-0.032379,-0.93367,0.28184525,8.932553070758102,16.771358708677198,
2023-07-25 18:19:11.080,0.625,-0.487805,-1.3414635000000001,-0.029235499999999998,-0.93191525,0.2825165,8.73386203828355,16.79973612329875,
2023-07-25 18:19:11.100,0.59451225,-0.487805,-1.03658525,-0.0329895,-0.93182375,0.2828825,9.034957407194096,16.930856836079474,
2023-07-25 18:19:11.120,0.457317,-0.5335369999999999,-0.96036575,-0.03079225,-0.93191525,0.2831725,8.780584948030983,16.90932806601885,
2023-07-25 18:19:11.140,0.32012175,-0.44207325,-0.7012197499999999,-0.03471375,-0.9335632500000001,0.28327925,8.97296831265561,16.891742272077074,
2023-07-25 18:19:11.160,0.0914635,-0.320122,-0.8079270000000001,-0.034134,-0.9331665,0.28202825,8.959217132794885,16.829203762858775,
2023-07-25 18:19:11.180,0.03048775,-0.24390225,-0.7317075,-0.03248575,-0.93583675,0.2843325,8.896921749838164,16.904754198604326,
2023-07-25 18:19:11.200,0.030488,-0.30487775,-0.8536585,-0.034439,-0.93479925,0.28553775,8.9653128998888,16.934493424154876,
2023-07-25 18:19:11.220,0.06097575,-0.320122,-1.3567075,-0.03330975,-0.9363097499999999,0.28303525,8.976361658583293,16.791367619755448,
2023-07-25 18:19:11.240,0.04573175,-0.35061,-1.28048775,-0.032364000000000004,-0.9339905,0.282013,8.847777797448863,16.768918401515275,
2023-07-25 18:19:11.260,0.015244,-0.3810975,-1.32621925,-0.031066999999999997,-0.933548,0.28193675,8.792327996910842,16.850312471803974,
2023-07-25 18:19:11.280,0.0609755,-0.4115855,-1.26524375,-0.032242,-0.93264775,0.282257,8.928588409523321,16.880776086743126,
2023-07-25 18:19:11.300,0.09146325,-0.4573175,-1.3719510000000001,-0.03045675,-0.93605025,0.28507975,8.805884982437055,16.976265715264976,
2023-07-25 18:19:11.320,0.3963415,-0.57926875,-1.6463415000000001,-0.0315855,-0.933685,0.28230299999999997,8.924070864849517,16.780580122392674,
2023-07-25 18:19:11.340,0.3963415,-0.39634125,-1.09756075,-0.0328215,-0.9304505,0.27804575,8.90891624901191,16.64569663092275,
2023-07-25 18:19:11.360,0.13719525,0.152439,-0.30487825,-0.034042249999999996,-0.93214425,0.27973925,9.00956882118998,16.6850046245771,
2023-07-25 18:19:11.380,-0.3810975,0.33536575,-0.2286585,-0.03393575,-0.93388375,0.2806395,9.019777514020412,16.745209915265526,
2023-07-25 18:19:11.400,-0.6707317500000001,0.24390275,-0.5792685,-0.033539,-0.9351195,0.282837,9.002008775554764,16.853560665224023,
2023-07-25 18:19:11.420,-0.7164635,-0.06097575,-1.11280525,-0.033554,-0.93783575,0.2853545,9.02253634242662,16.961804413496726,
2023-07-25 18:19:11.440,-0.44207325,-0.3810975,-1.3414635,-0.033432,-0.93515025,0.2834625,9.03772784352141,16.821972997948425,
2023-07-25 18:19:11.460,-0.10670725,-0.5640245,-1.66158525,-0.034194749999999996,-0.9382167499999999,0.2829285,8.97519988955898,16.827492006873925,
2023-07-25 18:19:11.480,0.2286585,-0.792683,-1.8140245,-0.031738249999999996,-0.9349514999999999,0.28234824999999997,8.794389126248035,16.82753420200505,
2023-07-25 18:19:11.500,0.335366,-0.96036575,-1.6463415,-0.0316925,-0.9328307499999999,0.2811585,8.797226556958053,16.8352374330029,
2023-07-25 18:19:11.520,0.27439025,-0.945122,-1.295732,-0.031845,-0.93312075,0.28186,8.885227476372762,16.8086405680538,
2023-07-25 18:19:11.540,0.36585375,-0.74695125,-1.1432925,-0.029540999999999998,-0.932968,0.280182,8.800508861003905,16.67092473598335,
2023-07-25 18:19:11.560,0.38109775,-0.67073175,-1.1737805,-0.0289615,-0.937729,0.2821045,8.570768586479423,16.859274984737702,
2023-07-25 18:19:11.580,0.487805,-0.655488,-1.41768275,-0.02955625,-0.9333495,0.28257774999999996,8.709029285271669,16.768245251822275,
2023-07-25 18:19:11.600,0.53353675,-0.5487807499999999,-1.219512,-0.02851875,-0.93319725,0.28222625,8.653686806608386,16.82449432295115,
2023-07-25 18:19:11.620,0.6707315,-0.3506095,-0.83841475,-0.02743525,-0.93176275,0.2819365,8.59792326714451,16.87723663264035,
2023-07-25 18:19:11.640,0.5792685,-0.01524375,-0.472561,-0.02908325,-0.9307555000000001,0.28379825000000003,8.834170111220125,17.056512503003226,
2023-07-25 18:19:11.660,0.152439,-0.10670725,-0.64024425,-0.03065525,-0.93200675,0.282364,8.788985586767573,16.81172353726205,
2023-07-25 18:19:11.680,-0.121951,-0.27439025,-0.503049,-0.03208925,-0.9322969999999999,0.28166199999999997,8.894451332117637,16.82554783977025,
2023-07-25 18:19:11.700,-0.5487805,-0.2743905,-0.36585375,-0.032440250000000004,-0.9324034999999999,0.28070075,8.876928732852733,16.687586861862975,
2023-07-25 18:19:11.720,-0.79268325,-0.27439025,-0.28963425,-0.031448500000000004,-0.9341889999999999,0.27990725,8.853013521806425,16.66376760678585,
2023-07-25 18:19:11.740,-0.8536587499999999,-0.27439,-0.44207325,-0.03221125,-0.935425,0.27787775,8.839856968300541,16.548139244465325,
2023-07-25 18:19:11.760,-0.7164635,-0.22865875000000002,-0.3963415,-0.030899250000000003,-0.93743925,0.27938825,8.88155729918966,16.5775706205074,
2023-07-25 18:19:11.780,-0.41463419999999995,-0.0487806,-0.5487804,-0.032629200000000004,-0.9384034,0.277405,8.910052616354267,16.46012918535496,
2023-07-25 18:19:11.800,-0.0762195,0.12195125000000001,-0.823171,-0.033279500000000004,-0.93769825,0.27815225,9.04263200784102,16.48672729979075,
2023-07-25 18:19:11.820,0.152439,0.47256125,-0.97560975,-0.03254675,-0.9358522499999999,0.277008,8.821781731631413,16.5520674973927,
2023-07-25 18:19:11.840,0.33536575,0.65548775,-1.082317,-0.030853250000000002,-0.93692025,0.276291,8.86254010033592,16.395319737001326,
2023-07-25 18:19:11.860,0.35061,0.8536587499999999,-1.082317,-0.03195175,-0.93486025,0.28031925,8.816178334620348,16.667413442544376,
2023-07-25 18:19:11.880,0.304878,1.0060975,-1.14329275,-0.0323335,-0.9348449999999999,0.279907,8.898311414216932,16.668921008277124,
2023-07-25 18:19:11.900,0.304878,0.97560975,-1.0670730000000002,-0.0305635,-0.93534875,0.28070075,8.724586189690186,16.694300908956848,
2023-07-25 18:19:11.920,0.24390225,0.97560975,-1.1737805,-0.0339355,-0.93513475,0.28138725,9.063807720149903,16.825428656457277,
2023-07-25 18:19:11.940,0.22865825,0.73170775,-1.17378025,-0.034973,-0.93510425,0.28199775,9.064570337224987,16.784296257125973,
2023-07-25 18:19:11.960,0.304878,0.655488,-1.0365855,-0.03289775,-0.9356845,0.2828675,8.850952212837122,16.826339163761524,
2023-07-25 18:19:11.980,0.38109775,0.472561,-1.1585364999999999,-0.032654,-0.934326,0.28320325,9.040649459951405,16.8283258936367,
2023-07-25 18:19:12.000,0.41158525,0.36585375,-1.0213415000000001,-0.03285225,-0.9345245,0.2811735,9.012730458218826,16.747408609251274,
2023-07-25 18:19:12.020,0.457317,0.320122,-0.960366,-0.033844,-0.93244925,0.279312,8.975398503387302,16.6671298290297,
2023-07-25 18:19:12.040,0.182927,0.35060975,-0.929878,-0.03364575,-0.93248,0.28091425,9.014706032305533,16.7826061075375,
2023-07-25 18:19:12.060,0.01524375,0.41158525,-0.80792675,-0.031341499999999994,-0.93425,0.28050275,8.845723274433444,16.769915156410676,
2023-07-25 18:19:12.080,-0.259146,0.2286585,-0.746951,-0.0340575,-0.93531825,0.28279125,9.137869594589745,16.840507028174578,
2023-07-25 18:19:12.100,-0.27439,0.22865825,-0.823171,-0.03392,-0.93603475,0.2823945,8.930040631364086,16.779252152921874,
2023-07-25 18:19:12.120,-0.2743905,-0.0609755,-1.0518290000000001,-0.036102499999999996,-0.93672175,0.28009025,9.021972483283935,16.7019131474334,
2023-07-25 18:19:12.140,-0.167683,-0.19817075,-1.0670730000000002,-0.03392025,-0.93638625,0.28057875,8.917608189283245,16.630400293267748,
2023-07-25 18:19:12.160,-0.152439,-0.35061,-1.0518295,-0.033035499999999995,-0.93446325,0.27900674999999997,8.895767573737054,16.655605307185624,
2023-07-25 18:19:12.180,-0.045732,-0.487805,-1.14329275,-0.03181475,-0.9382475,0.27955625,8.979538461188952,16.638242501241102,
2023-07-25 18:19:12.200,0.24390250000000002,-0.73170725,-1.53963425,-0.031952,-0.938156,0.280014,8.830297783947785,16.687819423266976,
2023-07-25 18:19:12.220,0.5792682499999999,-0.51829275,-1.3109757499999999,-0.032195749999999995,-0.93554675,0.27644325,8.908639061079398,16.4356021338238,
2023-07-25 18:19:12.240,0.91463425,0.060975499999999995,-0.7621955,-0.0326235,-0.93327325,0.27406325,8.935712591134475,16.4351285778262,
2023-07-25 18:19:12.260,0.945122,0.6859755,-0.47256125,-0.03433225,-0.93751525,0.276764,8.968446293560653,16.5256176295164,
2023-07-25 18:19:12.280,0.640244,0.8536585,-0.92987825,-0.034286250000000004,-0.9365235000000001,0.27975475,9.096042280754304,16.674512631786325,
2023-07-25 18:19:12.300,0.22865850000000001,0.8079270000000001,-1.2957317499999998,-0.036148,-0.93663025,0.28190625,9.135958346139198,16.6229847344296,
2023-07-25 18:19:12.320,0.2286585,0.56402475,-1.57012175,-0.03558375,-0.9342345000000001,0.28080725,9.094982692758622,16.774578551949926,
2023-07-25 18:19:12.340,0.18292675,0.33536575,-1.6158537499999999,-0.03517175,-0.935379,0.28212,8.859894634351793,16.759369798068075,
2023-07-25 18:19:12.360,0.09146325,0.0762195,-1.570122,-0.03096,-0.93356325,0.28331,8.778387161220158,16.927576022701302,
2023-07-25 18:19:12.380,-0.0762195,-0.2286585,-1.52439025,-0.03445425,-0.93365475,0.2819215,8.941489555555329,16.759790691003726,
2023-07-25 18:19:12.400,-0.0762195,-0.35060975,-1.3109755,-0.033431999999999996,-0.9346315,0.28019700000000003,8.977508748743162,16.700534545119773,
2023-07-25 18:19:12.420,-0.03048775,-0.4268295,-1.11280475,-0.0320895,-0.93508925,0.2796935,8.902324407247983,16.690335116607777,
2023-07-25 18:19:12.440,0.25914625,-0.304878,-1.05182925,-0.029922499999999998,-0.9362334999999999,0.2777405,8.73630105157492,16.4955458598605,
2023-07-25 18:19:12.460,0.45731725,-0.0762195,-1.00609775,-0.03141775,-0.93721025,0.279129,8.858630111534652,16.5690859790651,
2023-07-25 18:19:12.480,0.7164634999999999,-0.10670725,-1.3262195,-0.033111749999999995,-0.93644725,0.28059375,9.030106810337708,16.716218083453448,
2023-07-25 18:19:12.500,0.8536587499999999,0.09146325,-1.4634147499999999,-0.0315705,-0.9364475,0.28167725,8.725086472136958,16.708779944920472,
2023-07-25 18:19:12.520,0.82317075,0.10670725,-1.43292675,-0.03155525,-0.932953,0.28070075,8.772200561815417,16.694144018375525,
2023-07-25 18:19:12.540,0.487805,0.15243925,-1.25,-0.02999875,-0.93321225,0.281952,8.742549882719162,16.8959344641333,
2023-07-25 18:19:12.560,0.10670750000000001,0.09146325,-1.0670730000000002,-0.031799,-0.93305975,0.283539,8.752736685800713,16.9334221308875,
2023-07-25 18:19:12.580,-0.12195125000000001,-0.015244,-0.9298777500000001,-0.0310515,-0.9329375,0.28375225,8.902368346925877,16.9035241598245,
2023-07-25 18:19:12.600,-0.5640244999999999,-0.10670750000000001,-0.8993905,-0.03131125,-0.93234275,0.28154,8.848075089333568,16.774880239855648,
2023-07-25 18:19:12.620,-0.807927,-0.24390225,-0.86890275,-0.03411875,-0.9334415,0.2814635,9.059160879387758,16.80020533833525,
2023-07-25 18:19:12.640,-0.97560975,-0.19817075,-0.655488,-0.03294375,-0.93518075,0.27990725,8.927092855457595,16.59907118113535,
2023-07-25 18:19:12.660,-0.960366,-0.0914635,-0.7164634999999999,-0.0314025,-0.93653875,0.27784725,8.790504384817263,16.522524189838276,
2023-07-25 18:19:12.680,-0.9908535,0.015244,-0.62500025,-0.0306395,-0.9382325,0.276398,8.827671786800423,16.42963143218195,
2023-07-25 18:19:12.700,-0.91463425,0.167683,-0.640244,-0.03186025,-0.9380189999999999,0.27595525,8.743380138085747,16.375561568727477,
2023-07-25 18:19:12.720,-0.76219525,0.2439025,-0.73170725,-0.03392025,-0.938629,0.27584825,8.9116497851757,16.343978050205674,
2023-07-25 18:19:12.740,-0.625,0.015244,-0.97560975,-0.03503425,-0.9362334999999999,0.2772065,9.022771805990297,16.521101223571122,
2023-07-25 18:19:12.760,-0.25914625,-0.0762195,-0.960366,-0.0332335,-0.93692025,0.27793875,8.933218400294654,16.45287752018745,
2023-07-25 18:19:12.780,-0.06097575,-0.13719525,-0.807927,-0.034073,-0.9355165,0.2767485,9.036798316375755,16.514386556819925,
2023-07-25 18:19:12.800,0.04573175,-0.30487825,-1.00609775,-0.0333405,-0.935028,0.277054,8.948967290110367,16.44434327544535,
2023-07-25 18:19:12.820,0.1097562,-0.5121954,-0.9756098,-0.0336548,-0.9364136000000001,0.2779662,9.001781280444465,16.48465151324994,
2023-07-25 18:19:12.840,0.12195125,-0.62500025,-1.1585365,-0.0331575,-0.93580625,0.2778475,8.858941635244143,16.49467829622595,
2023-07-25 18:19:12.860,0.030488,-0.7012195,-1.097561,-0.03297425,-0.9343567500000001,0.277771,8.88313333169841,16.578220138996425,
2023-07-25 18:19:12.880,-0.12195125000000001,-0.518293,-1.2042685,-0.0296785,-0.93403625,0.27763350000000003,8.790426888294038,16.584442487664703,
2023-07-25 18:19:12.900,-0.2286585,-0.35060975,-1.1890245,-0.0309905,-0.9354705,0.27645875,8.833699619309465,16.4087686711056,
2023-07-25 18:19:12.920,-0.4268295,-0.24390225,-1.0213415000000001,-0.0312805,-0.9362794999999999,0.27868625,8.859179506072344,16.58642334940575,
2023-07-25 18:19:12.940,-0.5945125,-0.24390225,-1.097561,-0.03146375,-0.93544,0.27763375,8.804864380524572,16.57413927274345,
2023-07-25 18:19:12.960,-0.76219525,-0.365854,-1.17378075,-0.031890749999999995,-0.935852,0.27787775,8.835654308782775,16.566121652538826,
2023-07-25 18:19:12.980,-0.762195,-0.44207325,-1.1432925,-0.03225725,-0.93443275,0.277771,8.88877892825817,16.49440489696325,
2023-07-25 18:19:13.000,-1.082317,-0.64024425,-1.0365855,-0.03205875,-0.93580625,0.275131,8.823380427363162,16.31553504422715,
2023-07-25 18:19:13.020,-1.1280489999999999,-0.91463425,-1.0213415,-0.0313265,-0.937424,0.2774505,8.82934673836912,16.513495906935226,
2023-07-25 18:19:13.040,-0.83841475,-1.234756,-1.4634144999999998,-0.03074675,-0.9377595000000001,0.27638225,8.887872253973763,16.486646402168873,
2023-07-25 18:19:13.060,-0.42682925,-1.265244,-1.234756,-0.0304415,-0.93672175,0.2737275,8.731970101218833,16.3207878276835,
2023-07-25 18:19:13.080,0.137195,-0.792683,-0.823171,-0.0316925,-0.935913,0.2700805,8.819069280317295,16.062564781620722,
2023-07-25 18:19:13.100,0.28963425,-0.19817075,-0.487805,-0.0299225,-0.9382174999999999,0.27024825,8.8030091252419,16.08984207756655,
2023-07-25 18:19:13.120,0.01524375,0.18292675,-0.89939025,-0.02917475,-0.93858325,0.27111799999999997,8.706349281739652,16.193993846877902,
2023-07-25 18:19:13.140,-0.289634,0.39634175,-1.34146375,-0.03146375,-0.934952,0.270279,8.752821620157272,16.16038567841715,
2023-07-25 18:19:13.160,-0.42682925,0.518293,-1.539634,-0.03224175,-0.937912,0.27253725,8.83912173668192,16.2662474097188,
2023-07-25 18:19:13.180,-0.487805,0.472561,-1.7225609999999998,-0.03327925,-0.93823225,0.27508525,8.957471038932624,16.296864241001927,
2023-07-25 18:19:13.200,-0.3963415,0.27439,-1.8140245,-0.03170775,-0.9361725,0.27432249999999997,8.805491627312,16.3059231298285,
2023-07-25 18:19:13.220,-0.487805,0.01524375,-1.692073,-0.0301055,-0.9363557499999999,0.27409325,8.759031750330418,16.31160758059075,
2023-07-25 18:19:13.240,-0.60975625,0.10670750000000001,-1.52439025,-0.029830750000000003,-0.93708775,0.27140825,8.786105971957594,16.116883613326074,
2023-07-25 18:19:13.260,-0.50304875,0.320122,-1.2957317499999998,-0.030533,-0.9365384999999999,0.27095025,8.769573168726795,16.095055393981276,
2023-07-25 18:19:13.280,-0.28963425,0.65548775,-1.1280489999999999,-0.030838249999999998,-0.938675,0.27006525000000003,8.797692153575042,16.1133093741598,
2023-07-25 18:19:13.300,-0.198171,0.914634,-1.05182925,-0.02671825,-0.939453,0.2720185,8.455323014860618,16.222701546320774,
