timestamp [datetime],gyro x [deg/s],gyro y [deg/s],gyro z [deg/s],acceleration x [g],acceleration y [g],acceleration z [g],roll [deg],pitch [deg],yaw [deg]
2023-07-24 18:18:48.100,0.182927,-0.487805,-1.585366,-0.109863,-0.973755,0.100525,7.045524448673206,89.57578305659388,
2023-07-24 18:18:48.120,0.35061,-0.39634125,-1.35670725,-0.10906975000000001,-0.972458,0.098526,7.159981994758397,88.51760128735881,
2023-07-24 18:18:48.140,0.487805,-0.15243875,-1.112805,-0.108475,-0.97273275,0.1005095,7.343320181665021,86.82610446195223,
2023-07-24 18:18:48.160,0.97560975,-0.22865825,-1.0060975,-0.11027525,-0.96893325,0.1025085,7.529600639615076,85.14554967033354,
2023-07-24 18:18:48.180,0.92987825,-0.42682925,-0.655488,-0.10926825,-0.971237,0.102646,7.711521853997127,83.47237380752989,
2023-07-24 18:18:48.200,0.472561,-0.5487807499999999,-0.76219525,-0.10975625,-0.972412,0.1031035,7.888902756092449,81.79690736634072,
2023-07-24 18:18:48.220,0.1067075,-0.64024375,-0.655488,-0.1120605,-0.97319025,0.10197425,8.064748515066256,80.11911697302408,
2023-07-24 18:18:48.240,-0.03048775,-0.762195,-1.1585364999999999,-0.10923725,-0.97082525,0.10205075,8.234136065247611,78.44307540400891,
2023-07-24 18:18:48.260,0.030488,-0.853659,-1.26524375,-0.10971075,-0.96875,0.10018925000000001,8.398388818490204,76.77435752274107,
2023-07-24 18:18:48.280,-0.03048775,-0.762195,-1.1737805,-0.10952775000000001,-0.9697877500000001,0.09948725,8.559590238692259,75.11312939754703,
2023-07-24 18:18:48.300,0.04573175,-0.6859755,-0.8993905,-0.1095885,-0.97114575,0.10119625,8.722122102650026,73.46062765032542,
2023-07-24 18:18:48.320,0.3658535,-0.5487807499999999,-0.79268275,-0.110382,-0.971863,0.1041565,8.884225129090147,71.822301240833,
2023-07-24 18:18:48.340,0.792683,-0.36585375,-0.792683,-0.10961925,-0.9736025,0.102234,9.046201670511948,70.20067834548485,
2023-07-24 18:18:48.360,0.91463425,-0.35060975,-0.8536585,-0.11122125,-0.97271725,0.10464475,9.209209168945932,68.59397134785772,
2023-07-24 18:18:48.380,0.7926832,-0.35365860000000005,-1.0487804,-0.11356200000000001,-0.9731444,0.1057982,9.392109442422157,66.79793794363886,
2023-07-24 18:18:48.400,0.44207325,-0.47256125,-1.24999975,-0.11399825,-0.9691925,0.1063385,9.570538643752684,65.00830801638006,
2023-07-24 18:18:48.420,0.33536575,-0.487805,-1.2804875,-0.1151885,-0.96655275,0.10723875,9.725571933400346,63.42475854469777,
2023-07-24 18:18:48.440,0.259146,-0.60975625,-1.09756075,-0.11195375,-0.96716325,0.10600275,9.874427215292386,61.849172550421635,
2023-07-24 18:18:48.460,0.03048775,-0.5792685,-1.14329275,-0.114624,-0.9682617499999999,0.10348525,10.01920653648547,60.281460335377886,
2023-07-24 18:18:48.480,-0.09146375000000001,-0.457317,-1.3414632499999999,-0.1130065,-0.9752805,0.1047515,10.162155159119806,58.72006949703134,
2023-07-24 18:18:48.500,-0.10670750000000001,-0.3963415,-1.78353675,-0.1128845,-0.9740755,0.10472125,10.29494141370835,57.167286597598725,
2023-07-24 18:18:48.520,-0.137195,-0.442073,-2.042683,-0.11077875000000001,-0.970001,0.1037295,10.418903256767472,55.62483956258689,
2023-07-24 18:18:48.540,-0.22865825,-0.3810975,-1.890244,-0.11067225,-0.96888725,0.10269175,10.540438157093732,54.09085326631426,
2023-07-24 18:18:48.560,-0.27439025,-0.51829275,-1.43292675,-0.10989375,-0.9695585,0.1032105,10.658387417935245,52.56636556179752,
2023-07-24 18:18:48.580,-0.2286585,-0.5640244999999999,-1.387195,-0.109436,-0.96942125,0.10382074999999999,10.772899800520086,51.052810157932015,
2023-07-24 18:18:48.600,-0.0914635,-0.73170725,-1.6006095,-0.109665,-0.970825,0.1045225,10.882217938523517,49.55210652575904,
2023-07-24 18:18:48.620,0.12195125000000001,-0.8689024999999999,-1.60060975,-0.109253,-0.972687,0.10372925,10.98241461117103,48.064921949368895,
2023-07-24 18:18:48.640,0.3810975,-0.80792675,-1.6310975,-0.108887,-0.97229,0.10540775,11.077984955659517,46.59294964925785,
2023-07-24 18:18:48.660,0.5487805,-0.8689025,-1.570122,-0.10923775,-0.9730835,0.1055755,11.173202027204894,45.134977425048724,
2023-07-24 18:18:48.680,0.5792682499999999,-1.09756125,-1.8140245,-0.10906975000000001,-0.97364825,0.10739125,11.259626318850195,43.68921937193577,
2023-07-24 18:18:48.700,0.60975625,-1.38719525,-1.9664635000000001,-0.10832225000000001,-0.97280875,0.10708625,11.337292192000874,42.253974533553645,
2023-07-24 18:18:48.720,0.5640244999999999,-1.463415,-1.85975625,-0.1068265,-0.9692385,0.10885625,11.408097297838566,40.82830453716612,
2023-07-24 18:18:48.740,0.36585375,-1.554878,-1.722561,-0.10270699999999999,-0.9695892500000001,0.10807800000000001,11.469307839168174,39.4087553245223,
2023-07-24 18:18:48.760,0.06097575,-1.646341,-1.82926825,-0.104767,-0.96922275,0.10792550000000001,11.527279745394452,37.99447456396098,
2023-07-24 18:18:48.780,-0.2134145,-1.52439025,-1.7530485,-0.10232525,-0.97120675,0.10710125,11.582199224879027,36.58351475318188,
2023-07-24 18:18:48.800,-0.512195,-1.1829266,-1.7317074,-0.1020508,-0.9719362,0.106958,11.64303416856112,35.000449600134985,
2023-07-24 18:18:48.820,-0.39634175,-0.670732,-1.387195,-0.1018065,-0.967697,0.104477,11.709077376034976,33.42686726490152,
2023-07-24 18:18:48.840,-0.09146325,-0.27439025,-1.082317,-0.10504125,-0.968399,0.1091615,11.783263017473168,32.04305500246608,
2023-07-24 18:18:48.860,0.304878,-0.0914635,-0.792683,-0.103714,-0.97067275,0.10746775,11.86420485724637,30.676958150329668,
2023-07-24 18:18:48.880,0.10670725,-0.12195125000000001,-0.77743925,-0.10464475,-0.97280875,0.109375,11.94540041973162,29.32005794552169,
2023-07-24 18:18:48.900,-0.50304875,-0.24390250000000002,-0.8079270000000001,-0.10343925,-0.9748074999999999,0.10781875,12.01727267905693,27.961920445404225,
2023-07-24 18:18:48.920,-1.0213415,-0.457317,-0.9146340000000001,-0.10675025,-0.9715575000000001,0.1072235,12.09466350572179,26.601900329887016,
2023-07-24 18:18:48.940,-1.21951225,-0.777439,-1.097561,-0.1045835,-0.97053525,0.10624675,12.162408169252053,25.244797943610727,
2023-07-24 18:18:48.960,-1.1585364999999999,-0.8536585,-0.960366,-0.104599,-0.969635,0.1030275,12.22237993858571,23.894448524051434,
2023-07-24 18:18:48.980,-1.08231725,-0.762195,-0.76219525,-0.1033325,-0.970871,0.10180675,12.285316860476478,22.55382994774549,
2023-07-24 18:18:49.000,-0.50304875,-0.655488,-0.68597575,-0.10621649999999999,-0.97257975,0.10350025,12.352870052127699,21.229500941348277,
2023-07-24 18:18:49.020,0.2134145,-0.44207325,-0.7164634999999999,-0.1055145,-0.9757232499999999,0.10261524999999999,12.420109998700006,19.92683082285093,
2023-07-24 18:18:49.040,0.77743925,-0.25914625,-0.8231707500000001,-0.104492,-0.97450275,0.1033935,12.48150901871039,18.643487259833755,
2023-07-24 18:18:49.060,1.05182925,-0.1219515,-0.76219525,-0.10580475,-0.97645575,0.106781,12.547171650637686,17.376341055293224,
2023-07-24 18:18:49.080,1.11280475,-0.1981705,-0.7317072499999999,-0.108261,-0.97236625,0.10803225,12.62406550882148,16.121095849410068,
2023-07-24 18:18:49.100,1.06707325,-0.39634125,-0.97560975,-0.10639925,-0.96992525,0.1102295,12.701774337105327,14.87284065453047,
2023-07-24 18:18:49.120,1.21951225,-0.5487807499999999,-0.960366,-0.10755925000000001,-0.96859725,0.11190775,12.771072236851317,13.634515537353167,
2023-07-24 18:18:49.140,1.21951225,-0.60975625,-0.89939025,-0.108963,-0.9671477500000001,0.11007675,12.863511002677598,12.406587374159656,
2023-07-24 18:18:49.160,0.5792685,-0.53353675,-0.8841465,-0.108566,-0.97148125,0.11183175,12.957359801037363,11.178135915260611,
2023-07-24 18:18:49.180,0.015243749999999993,-0.7012195,-1.0518295,-0.10878,-0.97436525,0.11322,13.035531281497619,9.944744494488056,
2023-07-24 18:18:49.200,-0.597561,-0.9634148,-1.292683,-0.1054322,-0.9670778,0.1110962,13.097851861138292,8.552408125831334,
2023-07-24 18:18:49.220,-1.25,-0.99085375,-1.082317,-0.10504150000000001,-0.96661375,0.1108855,13.124738603084715,7.155351994941789,
2023-07-24 18:18:49.240,-1.70731725,-0.8689025,-0.8689025,-0.10554525000000001,-0.9683075,0.10957325,13.243923109161614,6.40821586238377,
2023-07-24 18:18:49.260,-1.7987802499999999,-0.54878025,-0.762195,-0.105133,-0.97129825,0.1063385,13.14835099371976,6.241208299893309,
2023-07-24 18:18:49.280,-1.7835364999999999,-0.3506095,-0.929878,-0.10487350000000001,-0.97229025,0.10652149999999999,13.132230838363313,6.294768814308071,
2023-07-24 18:18:49.300,-1.3262195,0.030488,-0.97560975,-0.10621625,-0.97239675,0.10493475,13.080362072748635,6.062557255611168,
2023-07-24 18:18:49.320,-0.960366,0.182927,-1.00609775,-0.1073455,-0.97277825,0.1068115,13.28789580610487,6.236605021629892,
2023-07-24 18:18:49.340,-0.74695125,0.0914635,-1.112805,-0.10766575,-0.97319025,0.109207,13.266305320899356,6.364947339269861,
2023-07-24 18:18:49.360,-0.56402475,-0.2743905,-1.1890245,-0.10852075,-0.97296125,0.1112515,13.271085187257427,6.525821936456872,
2023-07-24 18:18:49.380,-0.487805,-0.7164634999999999,-1.14329275,-0.107483,-0.97161875,0.11024475,13.313624322581838,6.46905419173158,
2023-07-24 18:18:49.400,-0.56402475,-1.1432925,-1.2195125,-0.105957,-0.97103875,0.10878,13.030657604071607,6.364864838974825,
2023-07-24 18:18:49.420,-0.76219525,-1.25,-1.25,-0.10398874999999999,-0.97041325,0.1067505,13.037187559715832,6.274400092924644,
2023-07-24 18:18:49.440,-1.03658525,-1.35670725,-1.2195125,-0.1032715,-0.969879,0.10612475,13.01379639571443,6.2835374085621964,
2023-07-24 18:18:49.460,-1.1432925,-1.09756125,-1.26524375,-0.102188,-0.971039,0.105179,12.969896846199767,6.23217165858248,
2023-07-24 18:18:49.480,-1.21951225,-0.655488,-1.1890245,-0.1018525,-0.97186275,0.10021975,12.95360578548965,5.84137058045696,
2023-07-24 18:18:49.500,-1.0060975,-0.07621925,-1.0060975,-0.1038515,-0.96804825,0.10227975,13.013082402182775,6.072556369576752,
2023-07-24 18:18:49.520,-0.3810975,0.3963415,-0.89939025,-0.10391225,-0.9714965,0.10366824999999999,13.096371612015872,6.116239181071762,
2023-07-24 18:18:49.540,-0.503049,0.4268295,-0.45731725,-0.10351574999999999,-0.973831,0.10421775,13.047672140771581,6.138174816853379,
2023-07-24 18:18:49.560,-0.89939025,0.3963415,-0.51829275,-0.103531,-0.97474675,0.1059875,13.087575390176802,6.21361302326779,
2023-07-24 18:18:49.580,-1.44817075,0.16768275,-0.59451225,-0.1073305,-0.974182,0.104492,13.268737267594489,6.153785085672723,
2023-07-24 18:18:49.600,-1.4939025,-0.3963415,-0.7012195,-0.10757425,-0.9707945,0.10212725,13.248988793743834,6.0025402026465,
2023-07-24 18:18:49.620,-1.195122,-0.548781,-0.7439024,-0.10661620000000001,-0.9704345999999999,0.1010866,13.153018459240098,5.952748200402885,
2023-07-24 18:18:49.640,-0.74695125,-0.640244,-0.762195,-0.10620099999999999,-0.971649,0.099243,13.240193683466465,5.83681851812355,
2023-07-24 18:18:49.660,-0.2439025,-0.5487807499999999,-0.80792675,-0.10720825,-0.97418225,0.100006,13.249201009683098,5.859788740855869,
2023-07-24 18:18:49.680,0.3963415,-0.5182925,-0.8231707500000001,-0.1056825,-0.97328175,0.10072325,13.083163575336876,5.923688897530923,
2023-07-24 18:18:49.700,0.777439,-0.4268295,-0.7164635,-0.10606375,-0.9751285000000001,0.103424,13.224000900583228,6.022461409619176,
2023-07-24 18:18:49.720,0.92987825,-0.1981705,-0.7012195,-0.1073305,-0.97514375,0.104767,13.316038918998721,6.122542400945136,
2023-07-24 18:18:49.740,0.8384145,-0.2134145,-0.8841465,-0.109024,-0.9715425,0.10499549999999999,13.36116526338818,6.1358737944625545,
2023-07-24 18:18:49.760,0.50304875,-0.365854,-1.097561,-0.10795575,-0.97000125,0.10754375,13.404914244836952,6.318686684362021,
2023-07-24 18:18:49.780,0.487805,-0.39634175,-0.97561,-0.10809325,-0.96887225,0.107895,13.358611518526452,6.358919072407993,
2023-07-24 18:18:49.800,0.35060975,-0.4420735,-0.807927,-0.106674,-0.965744,0.106293,13.248562154182112,6.330724459576047,
2023-07-24 18:18:49.820,-0.09146325,-0.3963415,-0.5487807499999999,-0.107544,-0.9706727500000001,0.108261,13.334234491600206,6.404926247206404,
2023-07-24 18:18:49.840,-0.320122,-0.457317,-0.792683,-0.10899350000000001,-0.97612,0.11039725,13.328902383778825,6.4075375656794975,
2023-07-24 18:18:49.860,-0.53353675,-0.74695125,-1.25000025,-0.10546849999999999,-0.97434975,0.1091005,13.13457009240269,6.439087491875,
2023-07-24 18:18:49.880,-0.8536585,-0.80792675,-1.17378025,-0.1048585,-0.9691925,0.10534675,13.058018478057825,6.097771685649015,
2023-07-24 18:18:49.900,-1.234756,-0.7012195,-0.92987825,-0.10549925,-0.9683685,0.10498025,13.170472961825475,6.184060309553672,
2023-07-24 18:18:49.920,-1.341463,-0.68597575,-0.7317075,-0.1045075,-0.97230525,0.10415675,13.085185693434596,6.148319817248563,
2023-07-24 18:18:49.940,-1.3262194999999999,-0.53353675,-0.76219525,-0.10638425,-0.97258,0.10270699999999999,13.217255023532793,6.03028782036008,
2023-07-24 18:18:49.960,-1.06707325,-0.3810975,-0.67073175,-0.10719275,-0.97340375,0.10264575000000001,13.236822414086213,6.029366565591907,
2023-07-24 18:18:49.980,-0.70121975,-0.167683,-0.6859755,-0.1065065,-0.9732665,0.103195,13.222759507321086,6.040307510438836,
2023-07-24 18:18:50.000,-0.3810975,-0.12195125000000001,-0.76219525,-0.107071,-0.97415175,0.103134,13.191716633953433,6.055099344825187,
2023-07-24 18:18:50.020,-0.060975800000000004,-0.2439022,-0.9268294000000001,-0.1073366,-0.9727172,0.1024048,13.222763538055625,5.991667488730127,
2023-07-24 18:18:50.040,0.03048775,-0.5487805,-1.00609775,-0.1082305,-0.97227475,0.10375975,13.40020107890873,6.152628830879024,
2023-07-24 18:18:50.060,0.0,-0.7317075,-1.112805,-0.10864275,-0.9729005,0.1045225,13.372141382341063,6.147586381315939,
2023-07-24 18:18:50.080,-0.18292675,-1.0670730000000002,-1.2195125,-0.10855125,-0.97256475,0.1052855,13.28275044552366,6.180959290028866,
2023-07-24 18:18:50.100,-0.41158525,-1.0365855,-1.28048775,-0.10467525,-0.97164925,0.10304275,13.117877683283638,6.0674447470562285,
2023-07-24 18:18:50.120,-0.5792685,-0.945122,-1.20426825,-0.10540775,-0.9713897499999999,0.1008145,13.188132131103998,5.891241933731116,
2023-07-24 18:18:50.140,-0.5792682499999999,-0.5792685,-0.82317075,-0.104019,-0.969574,0.10322575,13.082046434580697,6.067561183756197,
2023-07-24 18:18:50.160,-0.27439025,-0.35061,-0.655488,-0.1044615,-0.97006225,0.10369875,13.152475540187439,6.215819530516427,
2023-07-24 18:18:50.180,-0.1981705,-0.121951,-0.19817075,-0.1037445,-0.971237,0.1020355,12.995104897700097,6.040955378072496,
2023-07-24 18:18:50.200,-0.62500025,0.1981705,-0.32012175,-0.10607925,-0.9721985,0.10304275,13.137318779760427,6.052358304096941,
2023-07-24 18:18:50.220,-0.99085375,0.3658535,-0.18292675,-0.10476675,-0.9718322500000001,0.101776,13.056263803575249,5.958475260585786,
2023-07-24 18:18:50.240,-1.036585,0.1981705,-0.5487805,-0.1075135,-0.971939,0.103653,13.299332898807123,6.025919867835107,
2023-07-24 18:18:50.260,-1.0060975,0.030488,-0.503049,-0.10896325,-0.9694215,0.1001585,13.41345231411077,5.955926353853563,
2023-07-24 18:18:50.280,-1.17378075,-0.030488,-0.36585375,-0.1074525,-0.97108475,0.101349,13.289501382869062,5.970262414280029,
2023-07-24 18:18:50.300,-1.1890245,-0.304878,-0.2439025,-0.11012274999999999,-0.97268675,0.10321025,13.331248524635576,6.176981389852138,
2023-07-24 18:18:50.320,-0.960366,-0.50304925,-0.2439025,-0.10876475,-0.97212225,0.10305775,13.319565966817855,5.986211057824832,
2023-07-24 18:18:50.340,-0.640244,-0.59451225,-0.24390225000000001,-0.10980225,-0.9723055,0.10183725,13.322409671741482,5.990508311816015,
2023-07-24 18:18:50.360,-0.503049,-0.5792685,-0.22865825,-0.11030575,-0.97207625,0.10148599999999999,13.578046957896596,5.989574004951194,
2023-07-24 18:18:50.380,-0.5182925,-0.457317,-0.137195,-0.11224375,-0.9720917499999999,0.10287475,13.530418475844101,6.047103107660632,
2023-07-24 18:18:50.400,-0.82317075,-0.53353675,-0.21341475000000001,-0.1101835,-0.9716645,0.10346975,13.46689035335097,6.145306355277718,
2023-07-24 18:18:50.420,-1.0060975,-0.777439,-0.42682925,-0.111145,-0.9701235,0.10476674999999999,13.567122248416993,6.057102870129093,
2023-07-24 18:18:50.440,-0.9878047999999999,-0.9634146000000001,-0.1951218,-0.111084,-0.9691896,0.10347900000000002,13.377565524374058,6.139719420706257,
2023-07-24 18:18:50.460,-1.3414635000000001,-1.00609725,-0.06097575,-0.1125185,-0.9684295,0.1019745,13.573366086792333,6.078133780210067,
2023-07-24 18:18:50.480,-1.9054877499999998,-1.26524375,0.0609755,-0.113632,-0.9725645,0.10347,13.778457219168857,6.0394850202907335,
2023-07-24 18:18:50.500,-2.3323169999999998,-1.66158525,-0.3963415,-0.1124115,-0.9718169999999999,0.1029205,13.564176205423493,5.954110616979833,
2023-07-24 18:18:50.520,-2.8353657500000002,-2.057927,-0.60975625,-0.11155675,-0.9681095,0.10231025,13.517086712107506,6.088844099917722,
2023-07-24 18:18:50.540,-3.445122,-2.2713415,-0.3658535,-0.11082449999999999,-0.96821575,0.098816,13.494573247365906,5.891662858681357,
2023-07-24 18:18:50.560,-3.9176830000000002,-2.46951225,-0.030488,-0.11193825,-0.967758,0.0960235,13.647149261792386,5.607156904757979,
2023-07-24 18:18:50.580,-4.35975625,-2.82012175,0.35060975,-0.112839,-0.96813975,0.09625225,13.65667150435737,5.671393220985827,
2023-07-24 18:18:50.600,-4.710365749999999,-3.1707315,0.77743925,-0.1135715,-0.970947,0.095627,13.563130359180633,5.709172651909789,
2023-07-24 18:18:50.620,-4.49695125,-3.23170725,0.94512175,-0.1116945,-0.97621175,0.090164,13.444088429649078,5.221828466077511,
2023-07-24 18:18:50.640,-3.70426825,-2.97256075,0.68597575,-0.11261,-0.97857675,0.08605975,13.649060544311006,4.956521384312616,
2023-07-24 18:18:50.660,-2.8048782500000002,-2.5457315,0.3963415,-0.11206050000000001,-0.97795125,0.08316024999999999,13.586730512916994,4.806698094315308,
2023-07-24 18:18:50.680,-2.1798782500000002,-1.9512194999999999,0.289634,-0.112213,-0.974716,0.0838165,13.572292023085247,4.97107132593348,
2023-07-24 18:18:50.700,-1.737805,-1.6615855,0.259146,-0.115494,-0.9723967499999999,0.0849915,13.828461082421889,4.9988096631929935,
2023-07-24 18:18:50.720,-1.76829275,-1.58536575,0.2134145,-0.114853,-0.9714355,0.0841675,13.786906327680569,4.947315321748206,
2023-07-24 18:18:50.740,-1.70731725,-1.58536575,0.289634,-0.1129305,-0.97572325,0.0858455,13.712054728540409,4.991459661998611,
2023-07-24 18:18:50.760,-1.14329275,-1.69207325,-0.35060975,-0.11494425,-0.98039275,0.08581525000000001,13.680937979239253,4.97361514132897,
2023-07-24 18:18:50.780,-0.68597575,-1.4634145,-0.762195,-0.11473075,-0.97869875,0.0820465,13.691546872004267,4.728429061968555,
2023-07-24 18:18:50.800,-0.12195125000000001,-0.97560975,-0.8993905,-0.114761,-0.97802725,0.08386225,13.656868150534969,4.952536943322471,
2023-07-24 18:18:50.820,0.97561,-0.57926825,-1.265244,-0.11569225,-0.97329725,0.0865785,13.777336253801238,5.055391508120358,
2023-07-24 18:18:50.840,1.4756098,-0.20731700000000003,-1.0731706,-0.11529559999999998,-0.9753906000000001,0.0848632,13.731706894817325,4.978795811975351,
2023-07-24 18:18:50.860,1.1737805,0.16768275,-1.28048775,-0.116928,-0.97476175,0.0855865,13.806714295358567,4.892632236943605,
2023-07-24 18:18:50.880,0.97560975,0.106707,-1.23475625,-0.116516,-0.97344975,0.08959925,13.731295103605696,5.255886818286626,
2023-07-24 18:18:50.900,0.792683,-0.16768275,-1.6006095,-0.1167145,-0.9698640000000001,0.090393,13.769999644266136,5.332164378785706,
2023-07-24 18:18:50.920,0.6707315,-0.48780524999999997,-1.58536575,-0.1145935,-0.969055,0.08969099999999999,13.699358176443631,5.242433983715237,
2023-07-24 18:18:50.940,0.36585375,-0.62500025,-1.417683,-0.11384575,-0.97091675,0.0911865,13.667153812900025,5.379489380587913,
2023-07-24 18:18:50.960,0.289634,-0.807927,-1.1737805,-0.11486825,-0.971878,0.093155,13.731915782552278,5.488349691227782,
2023-07-24 18:18:50.980,0.5640244999999999,-0.9756095,-1.097561,-0.11505125,-0.970932,0.09289575,13.640751394256291,5.453411866783867,
2023-07-24 18:18:51.000,0.67073175,-0.9603659999999999,-0.7317072499999999,-0.114639,-0.97196975,0.0930635,13.628445297670545,5.446581549565025,
2023-07-24 18:18:51.020,0.8079270000000001,-0.8384145,-0.73170725,-0.11370825,-0.9734955,0.09236125,13.691327106817162,5.429042184132115,
2023-07-24 18:18:51.040,0.6707317500000001,-0.5792685,-0.89939,-0.11338775,-0.9735105,0.093628,13.673048700722568,5.49888044702918,
2023-07-24 18:18:51.060,0.472561,-0.5335369999999999,-1.082317,-0.11387649999999999,-0.97160325,0.0954895,13.715190580885299,5.626383991589883,
2023-07-24 18:18:51.080,0.36585375,-0.56402475,-1.112805,-0.11535675000000001,-0.97026075,0.09698475,13.761497372524651,5.717908938890737,
2023-07-24 18:18:51.100,0.289634,-0.5792685,-0.9908535,-0.1138915,-0.96879575,0.09608475,13.597902868024633,5.6664791214073915,
2023-07-24 18:18:51.120,-0.121951,-0.5487805,-0.960366,-0.11524975,-0.9706115,0.094223,13.822745689525277,5.578786073347089,
2023-07-24 18:18:51.140,-0.5945125,-0.625,-0.9451222499999999,-0.11572275,-0.97447225,0.0951385,13.700885098896201,5.541715155301411,
2023-07-24 18:18:51.160,-0.8536587499999999,-0.73170725,-1.3262195,-0.11454775,-0.9745635,0.095688,13.663004792391627,5.610003523275097,
2023-07-24 18:18:51.180,-1.1737805,-0.59451225,-1.50914625,-0.1132965,-0.97282425,0.09123225,13.593642363878814,5.383357597199328,
2023-07-24 18:18:51.200,-1.28048775,-0.39634125,-1.2804875,-0.113251,-0.97076425,0.08969125,13.610753725653474,5.261945154351331,
2023-07-24 18:18:51.220,-1.3719510000000001,-0.0914635,-0.97560975,-0.113739,-0.97134425,0.0875245,13.641739011365928,5.179470262750698,
2023-07-24 18:18:51.240,-1.112805,0.10670725,-0.86890275,-0.11492925,-0.97355625,0.08760075,13.664158962999664,5.10100748983443,
2023-07-24 18:18:51.260,-0.8414634,0.1097562,-0.9634148,-0.1158692,-0.975708,0.088208,13.758039316019023,5.136785335972382,
2023-07-24 18:18:51.280,-0.38109775,0.03048775,-1.00609775,-0.1151275,-0.9755095,0.0894775,13.68884193662332,5.26436365399001,
2023-07-24 18:18:51.300,-0.13719525,-0.21341425,-0.777439,-0.11581425000000001,-0.9730835,0.09019474999999999,13.838326507592624,5.283972425548825,
2023-07-24 18:18:51.320,0.015244,-0.42682925,-0.74695125,-0.11627175000000001,-0.9756469999999999,0.09117125000000001,13.653710232130052,5.420322214240798,
2023-07-24 18:18:51.340,0.24390225,-0.8536587499999999,-0.960366,-0.115845,-0.97680675,0.0928345,13.70945066789514,5.3545661749537246,
2023-07-24 18:18:51.360,0.2286585,-1.371951,-1.0518295,-0.11630225,-0.9726105,0.092224,13.755975698263612,5.3639008973757285,
2023-07-24 18:18:51.380,0.12195125000000001,-1.692073,-1.06707325,-0.11515775,-0.97155775,0.0935975,13.715412581148144,5.546566738988815,
2023-07-24 18:18:51.400,-0.04573175,-1.9512195,-0.99085375,-0.1158905,-0.9720305,0.09346025,13.906605960013067,5.4280826497885,
2023-07-24 18:18:51.420,-0.3810975,-2.24085375,-1.0365852500000001,-0.11424275,-0.97184775,0.09404,13.718011920036695,5.508157470296688,
2023-07-24 18:18:51.440,-0.82317075,-2.17987825,-1.12804875,-0.11195375,-0.9713134999999999,0.0940705,13.475645365366574,5.554617360410241,
2023-07-24 18:18:51.460,-1.3414635,-2.24085375,-1.02134175,-0.112427,-0.969269,0.094284,13.598501840255842,5.501771351693087,
2023-07-24 18:18:51.480,-2.02743925,-2.4390245,-0.44207325,-0.11312849999999999,-0.9636534999999999,0.095932,13.718199652547305,5.728929855120029,
2023-07-24 18:18:51.500,-2.6981705,-3.01829275,0.792683,-0.112137,-0.96022025,0.09935,13.646202934390637,5.910300715400176,
2023-07-24 18:18:51.520,-3.3841465,-4.0243905,2.05792675,-0.1148835,-0.958435,0.10270699999999999,13.881087588656825,6.026729764141379,
2023-07-24 18:18:51.540,-4.481707,-5.4878047500000005,3.50609775,-0.115631,-0.9621125,0.1016235,13.788356758416974,5.947639159230157,
2023-07-24 18:18:51.560,-5.7621952499999995,-6.905488249999999,4.74085375,-0.1192325,-0.965088,0.0991515,14.126775439045204,5.8408890637887865,
2023-07-24 18:18:51.580,-6.692073499999999,-8.49085375,5.518292499999999,-0.119583,-0.9736785,0.09576425,14.012934703359228,5.6131320076008535,
2023-07-24 18:18:51.600,-6.3567075,-9.34451225,5.015244,-0.11976625,-0.97937025,0.085953,13.96970508109304,4.9562709538640775,
2023-07-24 18:18:51.620,-5.3353660000000005,-9.32926825,4.237805,-0.1210175,-0.9816895,0.07646175,13.998261317269787,4.415076848519178,
2023-07-24 18:18:51.640,-4.527439,-8.49085375,3.36890225,-0.1209105,-0.97981275,0.0711365,13.983509332254208,4.1797403556436095,
2023-07-24 18:18:51.660,-3.734756,-7.5914635,2.7286585,-0.12019350000000001,-0.978836,0.07254025,13.987156032682527,4.221932736732626,
2023-07-24 18:18:51.680,-3.2439025999999997,-6.6829268,2.1707318,-0.122229,-0.9749511999999999,0.0731202,14.21530827194261,4.2659617350184025,
2023-07-24 18:18:51.700,-2.987805,-5.89939025,2.179878,-0.1257325,-0.972809,0.072876,14.333650735233164,4.316187117963317,
2023-07-24 18:18:51.720,-2.74390225,-5.320122,2.210366,-0.12643425,-0.9738465000000001,0.07318125,14.48829835167188,4.190281058441755,
2023-07-24 18:18:51.740,-2.789634,-4.80182925,2.25609775,-0.1289365,-0.9745635,0.07263175,14.567553375628869,4.2581658971016125,
2023-07-24 18:18:51.760,-2.7286585,-4.42073175,1.96646375,-0.12852475,-0.9717560000000001,0.07514950000000001,14.615798092406912,4.478113563470167,
2023-07-24 18:18:51.780,-2.2408535,-4.03963425,1.98170725,-0.13017275,-0.97442625,0.072876,14.604077744465904,4.306532079986567,
2023-07-24 18:18:51.800,-1.6768295,-3.4146342499999998,1.554878,-0.13067625,-0.9739685,0.07057175,14.688094820855513,4.145071408459977,
2023-07-24 18:18:51.820,-1.38719525,-2.682927,1.1737805,-0.13212575,-0.97911075,0.06781025,14.732546038702367,3.8683541599206706,
2023-07-24 18:18:51.840,-1.21951225,-1.9664635,0.50304875,-0.1325835,-0.9776155,0.0703275,14.705723527652708,4.030177979947226,
2023-07-24 18:18:51.860,-1.14329275,-1.58536575,-0.0609755,-0.13043225,-0.979187,0.07135,14.552974957671339,4.177860892017073,
2023-07-24 18:18:51.880,-0.9908535,-1.2042685,-0.45731725,-0.133606,-0.97436525,0.06968675,14.752714415098097,4.036165838998144,
2023-07-24 18:18:51.900,-1.082317,-0.83841475,-0.579268,-0.13412475000000001,-0.97006225,0.06948825,14.874843314778673,4.119080575629432,
2023-07-24 18:18:51.920,-1.11280475,-0.518293,-0.823171,-0.13676475,-0.9706725,0.07273850000000001,15.031179768526002,4.178949936194051,
2023-07-24 18:18:51.940,-1.05182925,-0.503049,-0.80792675,-0.13453674999999998,-0.97282425,0.07070925,14.92916981520051,4.1138158578268005,
2023-07-24 18:18:51.960,-0.82317075,-0.457317,-0.8689024999999999,-0.13513175,-0.97329725,0.073227,14.926435720331241,4.355330017912806,
2023-07-24 18:18:51.980,-0.33536575,-0.76219525,-0.97561,-0.13528425,-0.9752350000000001,0.07434075,14.95144947543767,4.337799424231399,
2023-07-24 18:18:52.000,0.18292675,-1.03658525,-1.2804875,-0.1353455,-0.97578425,0.07307425000000001,14.992058242415617,4.233448558722223,
2023-07-24 18:18:52.020,0.60975625,-1.26524375,-1.57012175,-0.13418575,-0.974991,0.0764465,14.783229985788338,4.576562467493531,
2023-07-24 18:18:52.040,0.8384149999999999,-1.5853655,-1.7835364999999999,-0.13301075,-0.972824,0.076233,14.745826466202871,4.522803697783829,
2023-07-24 18:18:52.060,1.00609775,-1.85975625,-1.8140245,-0.13284325,-0.97248825,0.0776215,14.790450728988716,4.680215516534346,
2023-07-24 18:18:52.080,1.0731709999999999,-2.0243904,-1.8048781999999999,-0.1307374,-0.9731200000000001,0.07730719999999999,14.708883191665297,4.628467021051273,
2023-07-24 18:18:52.100,0.76219525,-2.10365875,-1.6920730000000002,-0.129547,-0.9719847500000001,0.078415,14.518420682973328,4.594642596275648,
2023-07-24 18:18:52.120,0.35060975,-2.07317075,-1.722561,-0.12689224999999998,-0.97287,0.07804875,14.462827917686397,4.571001434838919,
2023-07-24 18:18:52.140,0.152439,-1.84451225,-1.8140245,-0.12934875,-0.9755705,0.07492075000000001,14.578708746133678,4.303630579391985,
2023-07-24 18:18:52.160,0.0914635,-1.371951,-1.5091465,-0.128464,-0.9692995,0.0750275,14.516376945078449,4.430162565952571,
2023-07-24 18:18:52.180,0.472561,-1.1432925,-1.570122,-0.12922675,-0.970932,0.07952875,14.607607936669574,4.742457120803238,
2023-07-24 18:18:52.200,0.67073175,-0.8993905,-1.38719525,-0.12854,-0.97406,0.0790405,14.354084282115856,4.599920818464142,
2023-07-24 18:18:52.220,0.12195125000000001,-0.640244,-1.47865875,-0.126297,-0.9740905,0.07653825,14.328009104240046,4.484996864950091,
2023-07-24 18:18:52.240,-0.807927,-0.50304875,-1.6006099999999999,-0.12928800000000001,-0.97493,0.07698075,14.514108781975018,4.581441776040165,
2023-07-24 18:18:52.260,-1.4786584999999999,-0.792683,-1.9664635000000001,-0.12890625,-0.97073375,0.07574475,14.513485819997733,4.485463442639784,
2023-07-24 18:18:52.280,-1.67682925,-1.082317,-1.890244,-0.129074,-0.96890275,0.0753785,14.557498500266128,4.401257066740953,
2023-07-24 18:18:52.300,-1.6310975,-1.2042685,-1.7378049999999998,-0.12980625,-0.9720610000000001,0.075104,14.575780858654625,4.399314649434999,
2023-07-24 18:18:52.320,-1.3109755,-1.29573175,-1.692073,-0.12852475,-0.97464,0.0732115,14.545474538668664,4.276613044166467,
2023-07-24 18:18:52.340,-0.57926825,-1.35670725,-1.75304875,-0.128174,-0.97544875,0.07514975,14.39512156480371,4.412400235884476,
2023-07-24 18:18:52.360,0.0762195,-1.29573175,-1.7835364999999999,-0.127548,-0.97604375,0.07122824999999999,14.412353857728064,4.243784098674382,
2023-07-24 18:18:52.380,0.67073175,-1.0670730000000002,-1.570122,-0.126419,-0.97492975,0.0729675,14.260694926685986,4.201436484473589,
2023-07-24 18:18:52.400,1.097561,-0.8536587499999999,-1.46341475,-0.12583925,-0.97584525,0.07374575,14.277598175560613,4.385235316568441,
2023-07-24 18:18:52.420,1.082317,-0.64024375,-1.44817075,-0.12382525,-0.97203075,0.075989,14.263060381606785,4.575654163389331,
2023-07-24 18:18:52.440,1.234756,-0.68597575,-1.46341475,-0.12461875,-0.9691925,0.0780945,14.312614561419522,4.65116401503429,
2023-07-24 18:18:52.460,1.15853675,-0.5487807499999999,-1.09756075,-0.126831,-0.9671325,0.0770265,14.463040484427083,4.520631349725242,
2023-07-24 18:18:52.480,0.5945125,-0.27439025,-0.823171,-0.12757875,-0.971222,0.07810975,14.459077661244343,4.557278641486597,
2023-07-24 18:18:52.500,0.0121952,-0.2195122,-0.9390243999999999,-0.1265016,-0.9761962000000001,0.0803832,14.329400011780667,4.798671730653399,
2023-07-24 18:18:52.520,-0.167683,-0.335366,-1.402439,-0.1280365,-0.9754484999999999,0.07963575,14.552440320628861,4.615584854120783,
2023-07-24 18:18:52.540,-0.2286585,-0.304878,-1.60060975,-0.1259765,-0.973862,0.0785065,14.305272469681022,4.660631716196228,
2023-07-24 18:18:52.560,-0.289634,-0.304878,-1.4786584999999999,-0.126251,-0.9717255,0.07681275,14.319388475318668,4.45128079870976,
2023-07-24 18:18:52.580,-0.2134145,-0.41158525,-1.3414635,-0.12910475,-0.972107,0.07925425,14.480973563057042,4.706363591098963,
2023-07-24 18:18:52.600,-0.152439,-0.53353675,-1.28048775,-0.128189,-0.972,0.077881,14.483778431403067,4.564391293382059,
2023-07-24 18:18:52.620,-0.0457315,-0.77743925,-1.0365852500000001,-0.12696849999999998,-0.9730835,0.0781095,14.43625789948549,4.573635570987918,
2023-07-24 18:18:52.640,0.167683,-0.70121925,-1.097561,-0.12638850000000001,-0.975067,0.07891825,14.326174135846586,4.628091824123196,
2023-07-24 18:18:52.660,0.152439,-0.7012195,-1.112805,-0.128403,-0.97518925,0.07807900000000001,14.466808055840282,4.54748350356266,
2023-07-24 18:18:52.680,0.27439,-0.5792682499999999,-1.2957317499999998,-0.1261135,-0.97575375,0.078583,14.36268479737602,4.614237627071489,
2023-07-24 18:18:52.700,0.259146,-0.51829275,-1.55487825,-0.12600725000000002,-0.97508225,0.0778195,14.390163012051339,4.662629386855443,
2023-07-24 18:18:52.720,0.259146,-0.487805,-1.84451225,-0.12472525,-0.9742735,0.07975775,14.315313127696363,4.696454106748426,
2023-07-24 18:18:52.740,-0.030488,-0.42682925,-2.08841475,-0.12547324999999998,-0.97280875,0.0813445,14.30779029011125,4.783674041545488,
2023-07-24 18:18:52.760,-0.07621975,-0.4268295,-2.24085375,-0.122284,-0.97395325,0.0803985,14.139217874081176,4.778309564194792,
2023-07-24 18:18:52.780,0.0,-0.320122,-2.2865855,-0.12312300000000001,-0.9763185,0.07882675,14.188691854677728,4.615171432014826,
2023-07-24 18:18:52.800,0.03048775,-0.27439,-1.9512194999999999,-0.121643,-0.9719085,0.0810245,14.088633656114808,4.7310664209085616,
2023-07-24 18:18:52.820,0.64024375,-0.22865825,-1.844512,-0.123825,-0.9709015000000001,0.08265675,14.218894658905185,4.823393902856203,
2023-07-24 18:18:52.840,0.8689024999999999,-0.0914635,-1.4786584999999999,-0.12031525,-0.971771,0.080536,14.011241149954017,4.782130926947957,
2023-07-24 18:18:52.860,0.3506095,0.21341475000000001,-1.11280475,-0.12071225000000001,-0.97131325,0.078354,14.001513786830124,4.637465576218183,
2023-07-24 18:18:52.880,-0.2286585,0.304878,-1.0060975,-0.12165825,-0.97598275,0.07850625,14.17825568918797,4.638010917753746,
2023-07-24 18:18:52.900,-0.8414636,0.1219514,-1.5975608000000001,-0.1235598,-0.9743284000000001,0.07960199999999999,14.264455689073605,4.719895109786682,
2023-07-24 18:18:52.920,-0.8689024999999999,-0.13719525,-1.7530485,-0.12384025,-0.9713135,0.077408,14.317770967900024,4.525865678741255,
2023-07-24 18:18:52.940,-0.762195,-0.39634125,-1.78353675,-0.12452674999999999,-0.9744415,0.07882675,14.196262819958847,4.632203285703042,
2023-07-24 18:18:52.960,-0.655488,-0.655488,-1.707317,-0.12492375,-0.97641025,0.07872025,14.194626672005207,4.636200992931322,
2023-07-24 18:18:52.980,-0.24390225,-0.945122,-1.7835364999999999,-0.12219225,-0.9743802500000001,0.07997125,14.031015974942399,4.709945908185915,
2023-07-24 18:18:53.000,0.04573175,-1.03658525,-1.8140242500000001,-0.12338275,-0.97470075,0.07890325000000001,14.184758926106497,4.612018473585124,
2023-07-24 18:18:53.020,0.06097575,-1.1280489999999999,-1.570122,-0.121918,-0.97384625,0.0799865,14.106093017999783,4.783237784237819,
2023-07-24 18:18:53.040,-0.030488,-1.0060975,-1.58536575,-0.1206815,-0.974823,0.07757575,14.048061496579315,4.513021605953824,
2023-07-24 18:18:53.060,-0.2286585,-0.94512175,-1.60060975,-0.1204225,-0.97366325,0.078903,14.07972447868788,4.648562303919199,
2023-07-24 18:18:53.080,-0.2286585,-0.80792675,-1.7682925,-0.118515,-0.97456375,0.08186325,13.923544626910846,4.775312831595613,
2023-07-24 18:18:53.100,0.18292675,-0.74695125,-1.4634145,-0.11885075,-0.971222,0.08197025,13.982394141904614,4.792829126899669,
2023-07-24 18:18:53.120,0.30487825,-0.5487807499999999,-1.1585367500000001,-0.11982725,-0.9717105,0.08052075,14.021345238295673,4.707360007712076,
2023-07-24 18:18:53.140,0.167683,-0.3810975,-1.15853675,-0.1214905,-0.97767625,0.08258075,14.050160183037264,4.7155195967556125,
2023-07-24 18:18:53.160,0.18292675,-0.7164634999999999,-1.58536575,-0.12188725,-0.97767625,0.08306875,14.07757690655,4.880754607722629,
2023-07-24 18:18:53.180,0.03048775,-1.09756075,-2.057927,-0.12020875,-0.97413625,0.08079525,14.00867632238571,4.662192188433238,
2023-07-24 18:18:53.200,-0.2286585,-1.25,-1.9207317499999998,-0.11947625,-0.971359,0.07930000000000001,13.991881627521536,4.6827883896039495,
2023-07-24 18:18:53.220,-0.42682925,-1.38719525,-1.692073,-0.1171265,-0.97099325,0.08030699999999999,13.879948814858622,4.780380034916476,
2023-07-24 18:18:53.240,-0.60975625,-1.387195,-1.37195125,-0.1183015,-0.97419725,0.08087174999999999,13.838309598194677,4.754164356398675,
2023-07-24 18:18:53.260,-0.472561,-1.4786584999999999,-1.4329269999999998,-0.118851,-0.9750215,0.07928475,13.885837228309143,4.636061942334024,
2023-07-24 18:18:53.280,-0.18292675,-1.37195125,-1.66158525,-0.11958325,-0.9760435000000001,0.07707225000000001,13.884748407692044,4.577298693587743,
2023-07-24 18:18:53.300,0.0,-1.1585364999999999,-1.66158525,-0.1179655,-0.97734075,0.07827775000000001,13.80768508615332,4.53203031660037,
2023-07-24 18:18:53.320,0.4268294,-0.9634148,-1.8170732,-0.1196412,-0.9774292000000001,0.07762440000000001,13.912233643539645,4.555211623024991,
2023-07-24 18:18:53.340,0.60975625,-0.8384149999999999,-2.17987825,-0.1199035,-0.978775,0.079941,13.941130363708325,4.681792756790948,
2023-07-24 18:18:53.360,0.777439,-1.082317,-2.7591465,-0.1199645,-0.9781340000000001,0.08247375,13.987741348140034,4.818472353692684,
2023-07-24 18:18:53.380,0.7317075,-1.69207325,-3.5518295,-0.11965925,-0.97987375,0.0871585,13.93958418670443,5.097880720763435,
2023-07-24 18:18:53.400,0.44207325,-2.60670725,-4.17682925,-0.12034625,-0.97927825,0.0872805,13.97682648506364,5.1065342983175555,
2023-07-24 18:18:53.420,0.10670725,-3.2774389999999998,-4.16158525,-0.117325,-0.9729615,0.08644125,13.82532209345527,5.056571822661027,
2023-07-24 18:18:53.440,-0.10670725,-3.93292675,-4.100609749999999,-0.115021,-0.97172575,0.09022525,13.705746197765855,5.3068730771291115,
2023-07-24 18:18:53.460,-0.2134145,-4.375,-3.5060977500000003,-0.110855,-0.971924,0.08842475,13.477561521869966,5.184873765098175,
2023-07-24 18:18:53.480,-0.68597575,-4.557927,-2.82012175,-0.1069185,-0.97285475,0.08375525,13.138860295691984,4.889474759766117,
2023-07-24 18:18:53.500,-1.3414632499999999,-4.28353675,-2.652439,-0.1058195,-0.975708,0.0827025,13.121560405652708,4.855835015037606,
2023-07-24 18:18:53.520,-2.195122,-3.9939025,-2.66768275,-0.10466,-0.97875975,0.07955925,13.013050032534323,4.62267136596526,
2023-07-24 18:18:53.540,-2.51524375,-3.64329275,-3.4146342499999998,-0.10527025,-0.97686775,0.0810545,13.090961327008259,4.751388751820144,
2023-07-24 18:18:53.560,-2.789634,-3.125,-3.765244,-0.1030575,-0.97676075,0.0782625,13.010827517712038,4.500632277637862,
2023-07-24 18:18:53.580,-2.53048775,-2.5762195,-3.84146375,-0.10414124999999999,-0.97515875,0.07902524999999999,12.973030929088964,4.66302089821351,
2023-07-24 18:18:53.600,-2.179878,-2.08841475,-3.90243925,-0.10404975,-0.97351075,0.08213775,13.105827667573102,4.7686191981329955,
2023-07-24 18:18:53.620,-1.707317,-1.7987805,-3.628049,-0.1024935,-0.97415175,0.0826875,13.008779105745447,4.8655011660678795,
2023-07-24 18:18:53.640,-1.6310974999999999,-1.81402425,-3.39939,-0.10324074999999999,-0.97309875,0.0841065,13.023879050434196,5.052530291246725,
2023-07-24 18:18:53.660,-1.905488,-1.935976,-2.8963415,-0.1006015,-0.97129825,0.0821685,12.924594201965668,4.900440853917125,
2023-07-24 18:18:53.680,-2.210366,-2.02743925,-2.68292675,-0.1017455,-0.97343425,0.08308425,12.970175126007128,4.880879807202092,
2023-07-24 18:18:53.700,-2.54573175,-2.362805,-2.439024,-0.1010285,-0.972702,0.08244325,12.973032171800071,4.866993521447618,
2023-07-24 18:18:53.720,-2.820122,-2.5304875,-2.11890275,-0.102585,-0.9748995,0.080429,12.90925972706517,4.6359009530630715,
2023-07-24 18:18:53.740,-3.02439,-2.6585366,-1.8658538,-0.0992432,-0.9753664000000001,0.07934559999999999,12.750750528566511,4.549837696508052,
2023-07-24 18:18:53.760,-3.24695125,-2.71341475,-1.82926825,-0.09901425,-0.978607,0.07298275,12.781218547153458,4.229743714727654,
2023-07-24 18:18:53.780,-3.4908537500000003,-2.56097575,-2.08841475,-0.098297,-0.97818,0.07220475,12.703552831350116,4.255556285022678,
2023-07-24 18:18:53.800,-3.628049,-2.45426825,-2.256098,-0.098633,-0.9761197500000001,0.07095325,12.717613705135335,4.128607952716962,
2023-07-24 18:18:53.820,-3.780488,-2.1646342499999998,-2.012195,-0.09725924999999999,-0.9752805,0.0681305,12.683081877659546,3.9783405294880154,
2023-07-24 18:18:53.840,-3.6890245,-1.7530485,-1.6310974999999999,-0.095474,-0.9774475,0.06626875,12.59410735565588,3.8446282345791474,
2023-07-24 18:18:53.860,-3.445122,-1.5091465,-1.2957317499999998,-0.09794625,-0.9774935,0.06687925,12.73780730461705,3.936437021105988,
2023-07-24 18:18:53.880,-3.00304875,-1.4329269999999998,-0.945122,-0.097824,-0.97972125,0.06788625000000001,12.564036727501971,3.9794217229109066,
2023-07-24 18:18:53.900,-2.4237805,-1.539634,-1.14329275,-0.100708,-0.982437,0.0697175,12.89072015716173,4.1253138342153335,
2023-07-24 18:18:53.920,-1.99695125,-2.02743925,-1.35670725,-0.10169975,-0.980728,0.06971725000000001,12.919638636144114,4.050930226012099,
2023-07-24 18:18:53.940,-1.6158537499999999,-2.5609755,-1.60060975,-0.103363,-0.97708125,0.07177700000000001,13.030130325255818,4.238970155086967,
2023-07-24 18:18:53.960,-1.5853655,-3.14024375,-1.8140245,-0.10411075,-0.98057575,0.06867975,13.054621532820349,4.019223385519943,
2023-07-24 18:18:53.980,-2.10365825,-3.8262195,-2.332317,-0.1047515,-0.9823915000000001,0.070343,13.20385938080581,4.136894191117726,
2023-07-24 18:18:54.000,-3.32317075,-4.95426825,-3.3689025,-0.10585,-0.984253,0.0741425,13.101643967742582,4.342639921437659,
2023-07-24 18:18:54.020,-4.90853675,-6.23475625,-4.63414625,-0.10391225,-0.9821472499999999,0.07514975,12.986379667086865,4.368694545132094,
2023-07-24 18:18:54.040,-6.722561,-7.37804925,-5.472561000000001,-0.1033325,-0.97622675,0.07174675,13.00667789392783,4.138419045687371,
2023-07-24 18:18:54.060,-8.841463749999999,-8.42987825,-5.85365875,-0.09896825000000001,-0.97669975,0.068405,12.687708716830691,4.0403170225984795,
2023-07-24 18:18:54.080,-10.960365750000001,-9.19207325,-5.8841465,-0.0931395,-0.98008725,0.069229,12.362752541199647,4.00671507573405,
2023-07-24 18:18:54.100,-12.78963425,-10.21341475,-6.3719515,-0.09246825,-0.9855805,0.06301875,12.339886310716281,3.535748915281289,
2023-07-24 18:18:54.120,-14.71036625,-11.03658575,-7.271342,-0.088684,-0.9867859999999999,0.05575575,12.006073317832948,3.0863086848415264,
2023-07-24 18:18:54.140,-16.2073172,-11.9024392,-8.1463416,-0.085901,-0.9902464,0.0486084,12.045469068048016,2.7691162993354226,
2023-07-24 18:18:54.160,-17.95731775,-12.69817075,-9.42073175,-0.0818175,-0.98391725,0.03282175,11.596141728409243,1.7120044981892875,
2023-07-24 18:18:54.180,-19.61890275,-13.185976,-10.487805,-0.07646175,-0.98329175,0.03196725,11.359379918266612,1.6983143947595778,
2023-07-24 18:18:54.200,-20.5945125,-13.750000499999999,-11.2042685,-0.07516475,-0.98724375,0.0156705,11.279908119381787,0.8085505220102434,
2023-07-24 18:18:54.220,-21.2195125,-13.38414675,-11.722561,-0.064392,-0.9794769999999999,0.00810225,10.712486866483701,0.42640511694021654,
2023-07-24 18:18:54.240,-20.32012225,-12.6067075,-11.61585375,-0.06271375,-0.9808655000000001,0.0015260000000000002,10.61335549864694,-0.11007864734406064,
2023-07-24 18:18:54.260,-18.3384145,-11.61585375,-11.2195125,-0.05612175,-0.9855195,0.00143425,10.164732981756543,-0.10486390867273344,
2023-07-24 18:18:54.280,-16.32622025,-10.32012225,-9.89329275,-0.05183425,-0.98793025,-0.01048275,10.00371088708475,-0.6351826966002747,
2023-07-24 18:18:54.300,-15.19817075,-8.96341475,-8.8719515,-0.0483245,-0.9895175,-0.021393,9.795191971725664,-1.3209072389888377,
2023-07-24 18:18:54.320,-15.213415,-7.423780750000001,-8.55182975,-0.04187025,-0.984375,-0.02413925,9.408988095235742,-1.4430972431300404,
2023-07-24 18:18:54.340,-14.740854,-5.9908535,-8.56707325,-0.0401155,-0.9836119999999999,-0.025162,9.470655825950445,-1.5067577943510528,
2023-07-24 18:18:54.360,-14.1463415,-4.695122,-8.384147,-0.03804,-0.98802175,-0.0281985,9.129495302724465,-1.6697409976091393,
2023-07-24 18:18:54.380,-13.887195250000001,-3.1859755,-7.98780525,-0.0319975,-0.98075875,-0.032684000000000005,8.772321484009304,-2.040761570985289,
2023-07-24 18:18:54.400,-13.368903249999999,-1.890244,-6.9969515,-0.031433,-0.98355075,-0.036438,8.734367594922979,-2.1977431326737573,
2023-07-24 18:18:54.420,-13.7195125,-0.7621955,-6.2195125,-0.028091500000000002,-0.9814452499999999,-0.043518,8.606397653553188,-2.706949395287978,
2023-07-24 18:18:54.440,-14.48170775,0.0609755,-5.182927,-0.02858,-0.98085,-0.04158,8.614898820090282,-2.630241481878855,
2023-07-24 18:18:54.460,-14.52743925,0.36585375,-4.7560975,-0.027588,-0.9848330000000001,-0.04188525,8.601119824158722,-2.529299037193155,
2023-07-24 18:18:54.480,-13.902439000000001,0.79268325,-3.94817075,-0.02526875,-0.99362175,-0.04898075,8.384819549523854,-2.8784521600921593,
2023-07-24 18:18:54.500,-12.728659,1.6463415000000001,-3.277439,-0.021759,-0.9923555,-0.0505525,8.166601648012573,-3.040006836647507,
2023-07-24 18:18:54.520,-11.478659,2.25609775,-2.14939025,-0.02571125,-0.99169925,-0.053848,8.355513877336286,-3.1602086324024157,
2023-07-24 18:18:54.540,-10.457317,2.1189025,-1.43292675,-0.026703249999999998,-0.98739625,-0.05308525,8.495428843446497,-3.174088958438105,
2023-07-24 18:18:54.560,-11.0365856,1.012195,-1.292683,-0.030798399999999997,-0.986914,-0.0616822,8.759712190816009,-3.5965006094590874,
2023-07-24 18:18:54.580,-12.6524395,-1.1890242500000001,-0.89939025,-0.03779575,-0.9827575,-0.061279,9.250261637576152,-3.731043447212585,
2023-07-24 18:18:54.600,-14.67987825,-4.4969515,-0.411585,-0.0420075,-0.98016375,-0.05827325,9.33732031463326,-3.380288160757729,
2023-07-24 18:18:54.620,-17.21036625,-8.582317,-0.0762195,-0.044327,-0.9782102500000001,-0.0652315,9.597599258284326,-3.805352192114242,
2023-07-24 18:18:54.640,-20.320122750000003,-12.774390499999999,0.777439,-0.039413500000000004,-0.97532675,-0.0673675,9.258456054201325,-4.102475335777896,
2023-07-24 18:18:54.660,-22.6676835,-15.990853999999999,1.03658525,-0.03929125,-0.97743225,-0.082321,9.235363931877195,-4.876804385089599,
2023-07-24 18:18:54.680,-23.262196,-17.5152445,2.1798782500000002,-0.03538525,-0.9839785,-0.094116,9.069691160934987,-5.510734798027826,
2023-07-24 18:18:54.700,-21.6463415,-17.6676835,2.5914635,-0.03230275,-0.9975127500000001,-0.10267625,8.83284785138293,-6.01341135636018,
2023-07-24 18:18:54.720,-19.08536625,-17.2103665,2.515244,-0.0330505,-1.00762925,-0.11637875,8.916628264595829,-6.712729511403268,
2023-07-24 18:18:54.740,-16.66158525,-16.570122,2.1189025,-0.03508,-1.0056305,-0.12591575,9.0122456797776,-7.221368423467325,
2023-07-24 18:18:54.760,-14.43597575,-16.097561499999998,1.55487825,-0.03878775,-1.00010675,-0.13719175,9.308399980378276,-7.899863414469095,
2023-07-24 18:18:54.780,-11.98170725,-15.487805,0.82317075,-0.0366975,-1.00131225,-0.139969,9.06386367324609,-7.996620262704681,
2023-07-24 18:18:54.800,-8.33841475,-13.9329275,-0.35060975,-0.03816225,-1.00859075,-0.1483765,9.14645882631288,-8.407099395465522,
2023-07-24 18:18:54.820,-4.32926825,-11.9664635,-1.280488,-0.036484,-1.0063935000000002,-0.157196,9.1089655200905,-8.867159005881561,
2023-07-24 18:18:54.840,-1.554878,-9.4969515,-1.7225609999999998,-0.036499000000000004,-0.9975127500000001,-0.16284175,8.998865410106788,-9.349833819939029,
2023-07-24 18:18:54.860,0.59451225,-6.79878075,-1.7835364999999999,-0.03068525,-0.9932555000000001,-0.1651,8.821845026495012,-9.517113974918821,
2023-07-24 18:18:54.880,2.164634,-3.97865875,-1.84451225,-0.0324705,-0.99069225,-0.16157525,8.861237028922766,-9.260770778074736,
2023-07-24 18:18:54.900,3.09451225,-1.4634147499999999,-1.38719525,-0.0314635,-0.98429875,-0.155197,8.863340336731952,-8.986447310715405,
2023-07-24 18:18:54.920,3.6737805000000003,0.6707315,-1.12804875,-0.02983075,-0.9827575,-0.15260325,8.72427762940088,-8.747660813469857,
2023-07-24 18:18:54.940,4.71036575,2.4237805,-0.945122,-0.028747750000000002,-0.98678575,-0.14488225,8.696313476160313,-8.240978856963729,
2023-07-24 18:18:54.960,6.1097562000000005,4.0975608,-0.4512194,-0.0322388,-0.9897582,-0.1377806,8.83422822948702,-7.902427580986125,
2023-07-24 18:18:54.980,7.8963415,5.3353660000000005,0.18292675,-0.030273750000000002,-0.9942472499999999,-0.1334685,8.691452082247693,-7.622071570974569,
2023-07-24 18:18:55.000,10.0,6.280487750000001,1.3719515,-0.03100575,-1.00415025,-0.127884,8.790711849879784,-7.196137317729956,
2023-07-24 18:18:55.020,13.140244249999999,6.69207325,2.43902425,-0.02978525,-1.00125125,-0.12680049999999998,8.617930436986612,-7.161674778048564,
2023-07-24 18:18:55.040,16.3719515,7.4237804999999994,2.95731675,-0.032593,-0.9943697499999999,-0.131714,8.897366263788491,-7.450914008317099,
2023-07-24 18:18:55.060,19.23780525,8.90243925,4.00914625,-0.03108225,-0.99002075,-0.1324615,8.731604968581479,-7.423605149089703,
2023-07-24 18:18:55.080,22.195123,10.945122,5.030488,-0.03303525,-0.995178,-0.1315305,8.877118429978516,-7.422845343108314,
2023-07-24 18:18:55.100,24.131098,12.71341525,5.106707500000001,-0.03565975,-0.9989015,-0.12243625,9.065489152477738,-6.810203352109461,
2023-07-24 18:18:55.120,24.161586,14.25304925,5.0762195,-0.0368345,-0.991608,-0.1179355,9.211315732638852,-6.697459278361194,
2023-07-24 18:18:55.140,23.07926875,15.73170775,4.28353675,-0.03981025,-0.9889830000000001,-0.11003125,9.390875345588398,-6.251247633182629,
2023-07-24 18:18:55.160,22.02743975,17.30182975,3.6890245,-0.04203825,-0.98719775,-0.1020965,9.492671906937105,-5.810686657965739,
2023-07-24 18:18:55.180,21.463415,19.00914675,3.612805,-0.0450135,-0.9863585,-0.08984375,9.54562624011433,-5.199368747978966,
2023-07-24 18:18:55.200,21.9054885,20.6707325,2.6676830000000002,-0.0507965,-0.99414075,-0.07540875,9.803306002841403,-4.4009760818879755,
2023-07-24 18:18:55.220,22.6524395,21.8597565,2.652439,-0.054962250000000004,-0.99079875,-0.062042,10.13514919287482,-3.5805306005258046,
2023-07-24 18:18:55.240,23.048780999999998,22.743903,2.347561,-0.0557405,-0.99140925,-0.050583,10.231417325924674,-2.794979998169616,
2023-07-24 18:18:55.260,23.963415,23.628049,1.73780475,-0.0580445,-0.99816875,-0.0390015,10.388834580248052,-1.9437937055767875,
2023-07-24 18:18:55.280,24.207317500000002,24.4054885,1.387195,-0.06195075,-0.9870909999999999,-0.0324705,10.636914887815053,-1.7978642652289665,
2023-07-24 18:18:55.300,24.0091465,25.381098,1.40243875,-0.0635685,-0.98410025,-0.016296249999999998,10.693110476651164,-0.8424550194757713,
2023-07-24 18:18:55.320,23.6890255,25.762196499999998,1.43292675,-0.066086,-0.98443625,-0.0034484999999999997,10.841896527969524,-0.09182853260844577,
2023-07-24 18:18:55.340,22.94207325,25.929879,1.43292675,-0.06959525,-0.9838715,0.00042749999999999993,11.014317514024349,0.13751647585417712,
2023-07-24 18:18:55.360,21.143293,26.082317500000002,1.23475625,-0.06958,-0.9868165,0.0059965,11.050513425339304,0.4536965657152052,
2023-07-24 18:18:55.380,19.560976,27.1341466,0.37804879999999996,-0.069507,-0.9893066000000001,0.0023438,11.055417982060892,0.21457091456506983,
2023-07-24 18:18:55.400,19.1463415,30.38109825,-1.417683,-0.0658265,-0.9981992500000001,-0.00383,10.778983991397382,-0.08896778748016482,
2023-07-24 18:18:55.420,19.34451225,34.5121965,-3.09451225,-0.06320225,-0.99453725,-0.002884,10.598589228252145,-0.0837410668675673,
2023-07-24 18:18:55.440,19.862805,39.3902445,-5.00000025,-0.06619275,-0.9920505,0.006012,10.730726813490087,0.4948807106798654,
2023-07-24 18:18:55.460,20.2591465,43.064025,-6.173780750000001,-0.06881725,-0.982437,0.02317825,10.980845304571787,1.3824093643502735,
2023-07-24 18:18:55.480,19.63414675,44.908537,-6.93597575,-0.072586,-0.976761,0.0417635,11.323871355830548,2.48533355715405,
2023-07-24 18:18:55.500,18.673780999999998,44.61890325,-6.64634175,-0.08073425,-0.97109975,0.062561,11.729604705367812,3.6517830754424097,
2023-07-24 18:18:55.520,17.8201225,42.774391249999994,-5.945122,-0.080551,-0.9729157500000001,0.07237225,11.73259946815292,4.290093731427099,
2023-07-24 18:18:55.540,17.10365875,39.72561075,-5.0762195,-0.085541,-0.96827675,0.086105,12.018965388911923,5.0826202601516215,
2023-07-24 18:18:55.560,15.4573175,35.350611,-3.93292675,-0.08836375,-0.9668275,0.09921250000000001,12.195128305475748,5.880994886868542,
2023-07-24 18:18:55.580,13.292683,30.24390375,-2.34756125,-0.0916595,-0.97225925,0.1051635,12.340209622039474,6.2189962525298625,
2023-07-24 18:18:55.600,11.920732000000001,25.07622025,-1.8292685,-0.092697,-0.9729005,0.10841375,12.452550283373014,6.386002914140015,
2023-07-24 18:18:55.620,10.0000005,19.8018295,-0.8689024999999999,-0.09176625,-0.9729005,0.10704025,12.290607336612531,6.389793840812146,
2023-07-24 18:18:55.640,8.0792685,14.588415,-1.0365852500000001,-0.0923765,-0.97795125,0.1085205,12.369321945417802,6.270505685125542,
2023-07-24 18:18:55.660,6.3719512499999995,9.893293,-0.99085375,-0.091278,-0.972397,0.10301225,12.294063373926122,6.035192396872496,
2023-07-24 18:18:55.680,3.887195,6.448171,-0.60975625,-0.085556,-0.96430975,0.091339,12.091700083617475,5.42939028006375,
2023-07-24 18:18:55.700,1.37195125,3.795732,0.5487802500000001,-0.08619675,-0.96121225,0.08873,12.120409801155503,5.151071356198344,
2023-07-24 18:18:55.720,-0.167683,1.95121975,1.737805,-0.08413725,-0.9656830000000001,0.0886535,12.092805416713567,5.157792405571051,
2023-07-24 18:18:55.740,-0.5487807499999999,0.32012199999999996,3.00304875,-0.08695975,-0.97006225,0.09053025,12.048047467195843,5.309810530604366,
2023-07-24 18:18:55.760,-0.914634,-0.7012195,3.887195,-0.085648,-0.976303,0.08862300000000001,12.044041588818587,5.127298127186769,
2023-07-24 18:18:55.780,-0.2682928,-1.2073171999999999,3.9146341999999996,-0.08479,-0.9949342,0.0811278,11.91179236496169,4.639779621865091,
2023-07-24 18:18:55.800,2.37804875,-0.94512175,2.62195125,-0.089966,-0.999649,0.07539375,12.161304430809011,4.255610605857818,
2023-07-24 18:18:55.820,4.3140245,-0.27439025,1.73780475,-0.09399425,-0.98757925,0.07708725,12.553486824824958,4.468141037337176,
2023-07-24 18:18:55.840,5.2743905,-0.25914625,1.26524375,-0.094864,-0.981491,0.0839995,12.414967903031936,4.9202599802904246,
2023-07-24 18:18:55.860,5.82317075,-0.97560975,0.83841475,-0.09513875,-0.98049925,0.08931,12.581578482174322,5.323294003086275,
2023-07-24 18:18:55.880,4.80182925,-2.04268275,0.503049,-0.0923615,-0.9730682500000001,0.0885465,12.460071477795879,5.16589138936741,
2023-07-24 18:18:55.900,3.09451225,-2.92682925,0.45731725,-0.09271225,-0.97335825,0.08836375,12.43829250732292,5.165770051856711,
2023-07-24 18:18:55.920,1.8292685,-3.55182925,0.41158525,-0.09046925,-0.968094,0.0899505,12.358383566757688,5.30047386326536,
2023-07-24 18:18:55.940,0.457317,-4.131097499999999,0.80792675,-0.0872495,-0.9704285,0.08724975,12.119907066402511,5.120992104015478,
2023-07-24 18:18:55.960,-1.35670725,-4.054878,1.2042682500000002,-0.08753975,-0.9718322500000001,0.081665,12.120686633581848,4.846657320120613,
2023-07-24 18:18:55.980,-3.14024425,-3.612805,1.66158525,-0.0830535,-0.970764,0.0793455,11.905763613153468,4.61013246896546,
2023-07-24 18:18:56.000,-3.81097575,-2.820122,1.43292675,-0.0834655,-0.97290025,0.08242825000000001,11.912084545542399,4.855340752813397,
2023-07-24 18:18:56.020,-3.3689025,-1.87499975,1.12804875,-0.0864105,-0.980484,0.08096325,12.026177870669805,4.662065843840331,
2023-07-24 18:18:56.040,-2.073171,-0.8536585,0.929878,-0.08815025,-0.9805145,0.079483,12.154883864980176,4.5988996546111025,
2023-07-24 18:18:56.060,-0.71646325,-0.0914635,0.7164635,-0.08979825,-0.9824525,0.08262625,12.217485706659104,4.786966285237725,
2023-07-24 18:18:56.080,0.487805,0.38109775,0.5640244999999999,-0.0920105,-0.98135375,0.08740225,12.324372441863844,5.094304853621146,
2023-07-24 18:18:56.100,1.2042682500000002,0.10670725,0.625,-0.0947875,-0.9804232500000001,0.09461975,12.545244728550216,5.4963985645388505,
2023-07-24 18:18:56.120,1.082317,-0.67073175,0.76219525,-0.09671,-0.9759215,0.09521475,12.66111657188722,5.513533052772118,
2023-07-24 18:18:56.140,0.45731725,-1.6158537499999999,0.96036575,-0.09535199999999999,-0.97515875,0.09465,12.688044822355891,5.571355242932299,
2023-07-24 18:18:56.160,-0.2743905,-2.4085365000000003,0.5640244999999999,-0.09632875,-0.97402975,0.09155250000000001,12.612856407406568,5.327437263809138,
2023-07-24 18:18:56.180,-0.945122,-2.60670725,0.3810975,-0.09602375,-0.97294625,0.08862325,12.672924829456036,5.348163906574484,
2023-07-24 18:18:56.200,-1.4146342,-2.6951218,0.573171,-0.1000734,-0.971997,0.089087,12.847416479971269,5.223799294490897,
2023-07-24 18:18:56.220,-1.7530489999999999,-2.66768275,0.5335369999999999,-0.09878524999999999,-0.9785155,0.08825675,12.620180427469826,5.145209441704168,
2023-07-24 18:18:56.240,-1.7530489999999999,-2.86585375,0.18292675,-0.09780875,-0.9810639999999999,0.08631875,12.627705725073149,5.002437464080344,
2023-07-24 18:18:56.260,-2.13414625,-3.23170725,-0.640244,-0.101471,-0.97703575,0.08633425,12.820296064237027,5.034660823842344,
2023-07-24 18:18:56.280,-3.1249997499999997,-3.7804877500000003,-0.74695125,-0.1026915,-0.97325125,0.0867005,13.04453363206786,5.092494034566769,
2023-07-24 18:18:56.300,-4.054878,-4.37500025,-0.853659,-0.100357,-0.97254925,0.08418300000000001,12.796959493001623,4.93274561015965,
2023-07-24 18:18:56.320,-4.359756,-4.740853749999999,-0.503049,-0.10023499999999999,-0.97131375,0.083786,12.988661040823168,4.879335753829039,
2023-07-24 18:18:56.340,-4.573171,-5.0,0.0762195,-0.0986635,-0.968521,0.08062725,12.726172038269489,4.714814468767109,
2023-07-24 18:18:56.360,-5.27439025,-5.2591465,0.945122,-0.10040299999999999,-0.9650115,0.081848,12.865739563236332,4.8545150238579495,
2023-07-24 18:18:56.380,-6.234756,-5.67073175,1.7987805000000001,-0.100769,-0.970596,0.08155825,12.98443812461001,4.770340540715196,
2023-07-24 18:18:56.400,-6.53963425,-6.402438999999999,2.210366,-0.099548,-0.97810325,0.084244,12.84815940125413,4.873353019817756,
2023-07-24 18:18:56.420,-5.960365749999999,-7.16463425,2.1189025,-0.10131799999999999,-0.98400875,0.078308,12.909099663407886,4.475695279382229,
2023-07-24 18:18:56.440,-5.30487825,-7.54573175,1.722561,-0.10234075,-0.98156725,0.07293725,13.009732678608358,4.171885781509353,
2023-07-24 18:18:56.460,-5.106707500000001,-7.83536625,1.234756,-0.1020815,-0.9798735000000001,0.07069375,12.927322743080147,4.111043309903039,
2023-07-24 18:18:56.480,-5.13719525,-8.17073175,0.71646375,-0.10234075000000001,-0.9823915,0.070953,12.911575916742514,4.062141549276049,
2023-07-24 18:18:56.500,-4.664634,-8.323171,-0.04573174999999999,-0.09954825,-0.989166,0.0672605,12.740420784985169,3.8523864974387223,
2023-07-24 18:18:56.520,-3.6890245,-8.17073175,-0.945122,-0.10035725,-0.989273,0.06155425,12.637182594890405,3.611729829074207,
2023-07-24 18:18:56.540,-2.71341425,-7.804878250000001,-1.387195,-0.0998685,-0.98255925,0.05879225,12.767601717960531,3.350396755582743,
2023-07-24 18:18:56.560,-2.13414625,-7.378049,-1.234756,-0.0968475,-0.974121,0.06431575,12.663401460660467,3.79727755431837,
2023-07-24 18:18:56.580,-2.164634,-7.4237804999999994,-0.320122,-0.097931,-0.9752959999999999,0.0647125,12.726447162726672,3.787742388741677,
2023-07-24 18:18:56.600,-2.45426825,-7.57621975,0.0457315,-0.09832774999999999,-0.98011775,0.06402574999999999,12.6834463465879,3.707554614079065,
2023-07-24 18:18:56.620,-2.4390244,-7.951219399999999,0.1219514,-0.09836439999999999,-0.9773440000000001,0.0635376,12.680818834008125,3.7669725606686937,
2023-07-24 18:18:56.640,-2.621951,-8.4451225,0.0762195,-0.09816,-0.97259525,0.06390375,12.790506329682174,3.7579783845962,
2023-07-24 18:18:56.660,-3.12499975,-8.948171,0.4268295,-0.09790025,-0.97306825,0.0635375,12.765146014493972,3.7314807983190192,
2023-07-24 18:18:56.680,-3.14024375,-9.10060975,0.503049,-0.0980985,-0.98024,0.06468175,12.63288722355125,3.746499892066936,
2023-07-24 18:18:56.700,-2.5000002500000003,-9.237804749999999,0.2591465,-0.09838875,-0.983719,0.0634765,12.756742302265152,3.631842934734081,
2023-07-24 18:18:56.720,-1.9359757499999999,-9.14634125,-0.0762195,-0.09770224999999999,-0.981079,0.062256,12.586549415767443,3.630022018007132,
2023-07-24 18:18:56.740,-2.012195,-9.0853655,0.2439025,-0.1005095,-0.9743345,0.0600585,12.870059925987121,3.5380055743101977,
2023-07-24 18:18:56.760,-2.7743902499999997,-9.32926825,0.83841475,-0.10000625,-0.97215275,0.0635525,12.964897841511046,3.7978318328250182,
2023-07-24 18:18:56.780,-3.33841475,-9.878049,1.02134125,-0.09962475,-0.98023975,0.06546025,12.75859430437368,3.7525441490709497,
2023-07-24 18:18:56.800,-3.140244,-10.487805,0.5335369999999999,-0.102081,-0.98294075,0.063248,12.961256675797273,3.7123829118101455,
2023-07-24 18:18:56.820,-2.484756,-10.990854,0.27439025,-0.10453775,-0.98431375,0.0645905,13.029628973957813,3.8094566782490347,
2023-07-24 18:18:56.840,-1.9207319999999999,-11.44817075,0.182927,-0.10375975,-0.97695925,0.06350700000000001,13.107072360024581,3.753078943663617,
2023-07-24 18:18:56.860,-1.6006095,-12.04268325,0.4115855,-0.103836,-0.979721,0.06262224999999999,13.025336337454497,3.760758392917147,
2023-07-24 18:18:56.880,-1.707317,-12.6067075,0.65548775,-0.10340875,-0.97689825,0.06086725,13.058511835997614,3.565572609394046,
2023-07-24 18:18:56.900,-2.1341465,-12.835366,0.59451225,-0.10025049999999999,-0.9781645,0.05950925,12.72632273153009,3.509624742386279,
2023-07-24 18:18:56.920,-2.5762195,-13.140244000000001,0.4268295,-0.100052,-0.976776,0.05812075,12.80195573308609,3.472191808768841,
2023-07-24 18:18:56.940,-3.094512,-12.8963415,0.8536587499999999,-0.096466,-0.97381575,0.054412749999999996,12.690044122290068,3.1865711368999,
2023-07-24 18:18:56.960,-3.3841465,-12.3018295,1.0670730000000002,-0.0975645,-0.9796144999999999,0.05181875,12.635095914196611,3.022903493415967,
2023-07-24 18:18:56.980,-2.7286585,-10.92987825,0.655488,-0.09515375,-0.98550425,0.0467835,12.444166889237898,2.667446848575416,
2023-07-24 18:18:57.000,-2.012195,-9.29878075,0.19817075,-0.093811,-0.98179625,0.043503,12.436363275637945,2.4417759834026,
2023-07-24 18:18:57.020,-1.6097560000000002,-7.365853799999999,0.2682928,-0.0952026,-0.9791626000000001,0.042858799999999996,12.563800949972023,2.4627866992645635,
2023-07-24 18:18:57.040,-1.7682927499999999,-6.03658575,0.640244,-0.0982055,-0.9763795,0.048416,12.765361177989618,2.8944452229494075,
2023-07-24 18:18:57.060,-1.6310975,-5.54878025,0.655488,-0.09843450000000001,-0.98275775,0.055313249999999994,12.599637899368346,3.184273502357776,
2023-07-24 18:18:57.080,-1.0365855,-5.35061,0.53353675,-0.10044875,-0.981827,0.057663,12.854603783218693,3.3822883019041967,
2023-07-24 18:18:57.100,-0.44207325,-5.4725607499999995,0.289634,-0.09977725,-0.9823455,0.05748,12.816415998834039,3.3426278471226425,
2023-07-24 18:18:57.120,0.0762195,-5.73170775,0.16768275,-0.09872449999999999,-0.98030075,0.0615845,12.745122334379573,3.5959478270193372,
2023-07-24 18:18:57.140,0.503049,-6.2042684999999995,0.16768275,-0.100601,-0.98016375,0.0621795,12.915534608069784,3.6156320302354032,
2023-07-24 18:18:57.160,0.4115855,-6.692073499999999,0.1981705,-0.10041825,-0.979782,0.06213375,12.845747812057915,3.694437328596969,
2023-07-24 18:18:57.180,0.33536575,-6.95122,0.2591465,-0.1019285,-0.98036175,0.06124875,13.006176884526568,3.5405467762440637,
2023-07-24 18:18:57.200,0.51829275,-7.11890275,0.44207325,-0.10168475,-0.97938525,0.06306475,12.801512659790639,3.7183114100767725,
2023-07-24 18:18:57.220,0.97560975,-7.17987825,0.472561,-0.09922775,-0.97612,0.06517025,12.704758981888794,3.835942165083601,
2023-07-24 18:18:57.240,1.387195,-7.17987825,0.7317072499999999,-0.0997465,-0.979843,0.06454475,12.833766772704024,3.775026273567363,
2023-07-24 18:18:57.260,1.0213415,-7.0121952499999995,1.06707325,-0.09812925,-0.97772225,0.0638735,12.708155613532178,3.7090797117619516,
2023-07-24 18:18:57.280,0.0762195,-6.753049,1.1890245,-0.101349,-0.975952,0.057266,12.933613706943866,3.396285974153514,
2023-07-24 18:18:57.300,-0.8993905,-6.29573175,0.8536585,-0.09933475,-0.974045,0.06013525,12.857912598902011,3.533501085200136,
2023-07-24 18:18:57.320,-1.280488,-5.807926999999999,0.487805,-0.10014325,-0.9753875000000001,0.06027225,12.845338442240418,3.557108691808388,
2023-07-24 18:18:57.340,-1.1890245,-5.106707500000001,0.503049,-0.1009675,-0.97369375,0.057708999999999996,12.857314102320316,3.362873175960921,
2023-07-24 18:18:57.360,-1.280488,-4.40548775,0.792683,-0.10313375,-0.97717275,0.0600585,13.068077844693,3.4843027109779072,
2023-07-24 18:18:57.380,-0.45731725,-3.81097575,0.5945119999999999,-0.103714,-0.9815827500000001,0.061966,13.001146831109473,3.692229157769283,
2023-07-24 18:18:57.400,0.6707317500000001,-3.24695125,0.53353675,-0.10105875,-0.98062125,0.05981425,12.980099479263764,3.4699373857050304,
2023-07-24 18:18:57.420,1.32621975,-2.469512,0.487805,-0.1044465,-0.9795685,0.05943275,13.052236855857608,3.5065150642580747,
2023-07-24 18:18:57.440,1.6341462,-1.7073169999999998,0.573171,-0.10427260000000001,-0.9811156000000001,0.0604614,13.072368334315666,3.542444923984084,
2023-07-24 18:18:57.460,2.13414625,-1.08231725,0.3810975,-0.103958,-0.980011,0.06202725,12.972310217032877,3.6569901313453244,
2023-07-24 18:18:57.480,2.77439,-0.65548775,0.33536575,-0.10624700000000001,-0.9765625,0.0658875,13.160800806109428,3.925542629450014,
2023-07-24 18:18:57.500,3.079268,-0.2286585,0.472561,-0.10841375,-0.974533,0.064438,13.24593742454205,3.8276529599571063,
2023-07-24 18:18:57.520,2.83536575,-0.03048775,0.777439,-0.1074065,-0.97708125,0.06672675,13.276057156581402,3.864287317106701,
2023-07-24 18:18:57.540,2.606707,-0.2439025,0.76219525,-0.10960400000000001,-0.97828675,0.07322675,13.47142579541508,4.383863587643546,
2023-07-24 18:18:57.560,2.5,-1.21951225,0.4268295,-0.11315925,-0.977188,0.07913200000000001,13.524285464740984,4.634093868371096,
2023-07-24 18:18:57.580,2.62195125,-2.86585375,0.82317075,-0.11622650000000001,-0.9747315,0.0838775,13.685912323131582,4.802698178946116,
2023-07-24 18:18:57.600,2.789634,-4.6036585,1.47865875,-0.1168825,-0.97619625,0.081299,13.934776442353645,4.796660493116768,
2023-07-24 18:18:57.620,2.53048775,-5.9146339999999995,1.6006097499999998,-0.114853,-0.97554025,0.074951,13.662305876135093,4.322119218920179,
2023-07-24 18:18:57.640,2.22560975,-5.945122,1.12804875,-0.114258,-0.9790955,0.06556675,13.622123875002991,3.7724400573140713,
2023-07-24 18:18:57.660,1.82926825,-4.817073,0.640244,-0.1116945,-0.97799675,0.0606995,13.568618571773122,3.5800645276473233,
2023-07-24 18:18:57.680,1.84451225,-3.125,0.03048775,-0.11183175,-0.97842425,0.06158425,13.518624023332194,3.592955049011721,
2023-07-24 18:18:57.700,1.81402475,-1.1432927499999999,-0.609756,-0.1097105,-0.9746705,0.065552,13.401775876484471,3.895906493094074,
2023-07-24 18:18:57.720,1.73780475,0.45731725,-1.00609775,-0.11233525,-0.9745637500000001,0.07000725000000001,13.451151683051052,4.130605991573674,
2023-07-24 18:18:57.740,1.570122,1.75304875,-1.265244,-0.110687,-0.97177125,0.07525625,13.52354887510085,4.4447195990506,
2023-07-24 18:18:57.760,1.265244,2.3475610000000002,-1.1128049999999998,-0.1130525,-0.97215275,0.07870475,13.669887554317782,4.6669539164508365,
2023-07-24 18:18:57.780,0.89939025,2.40853625,-1.0060975,-0.1161345,-0.972946,0.0833435,13.738694240371267,4.879723187398305,
2023-07-24 18:18:57.800,0.5487807499999999,2.1341465,-1.0213415000000001,-0.11593625,-0.97520425,0.086548,13.855642512608654,5.078777359202029,
2023-07-24 18:18:57.820,0.30487825,1.5091465,-1.23475625,-0.11581425,-0.97758475,0.08589175,13.831640207346034,5.089954588095317,
2023-07-24 18:18:57.840,0.2926828,0.7682928,-1.2926826,-0.1174072,-0.9745484,0.0861938,13.796010766202784,5.102248366638316,
2023-07-24 18:18:57.860,0.777439,-0.045731749999999995,-1.4634147499999999,-0.11491375,-0.97496025,0.086456,13.663769739683048,5.075026945759937,
2023-07-24 18:18:57.880,1.0365855,-0.487805,-1.143293,-0.114029,-0.977005,0.0825045,13.639676481225393,4.807779429158103,
2023-07-24 18:18:57.900,0.4115855,-0.7012195,-1.3414632499999999,-0.1137695,-0.9758757499999999,0.07882675,13.688495679634343,4.596161276666621,
2023-07-24 18:18:57.920,-0.24390250000000002,-0.74695125,-1.6463415,-0.11187775,-0.975113,0.080017,13.47841505440612,4.711633667627069,
2023-07-24 18:18:57.940,-0.655488,-0.8536587499999999,-1.844512,-0.112915,-0.9727785,0.07789625,13.623604328765104,4.549580470188687,
2023-07-24 18:18:57.960,-0.6707315,-1.08231725,-1.84451225,-0.1139525,-0.9727935000000001,0.08003275,13.636399904867183,4.767343228350917,
2023-07-24 18:18:57.980,-0.44207325,-1.23475625,-1.570122,-0.112732,-0.9736635,0.07716375,13.591221261814297,4.549639646309053,
2023-07-24 18:18:58.000,-0.09146325,-1.2042685,-1.46341475,-0.11358625,-0.97338875,0.07818625,13.728719178942626,4.642346462944346,
2023-07-24 18:18:58.020,0.25914625,-1.21951225,-1.41768275,-0.11206075,-0.9727325,0.07931525,13.523445108068202,4.705301583677304,
2023-07-24 18:18:58.040,0.5792685,-1.3262195,-1.2957317499999998,-0.11305224999999999,-0.973816,0.08044475,13.539341288196944,4.673110335611163,
2023-07-24 18:18:58.060,0.74695125,-1.24999975,-0.97560975,-0.110779,-0.9745327500000001,0.08331275,13.56899071002234,4.88715654630996,
2023-07-24 18:18:58.080,0.67073175,-1.37195125,-0.929878,-0.112259,-0.97644025,0.08184825,13.639058970724754,4.698596371677489,
2023-07-24 18:18:58.100,0.35060975,-1.463415,-0.945122,-0.11096175,-0.971863,0.08335875000000001,13.42313542115619,4.8794765479392055,
2023-07-24 18:18:58.120,0.304878,-1.58536575,-0.96036575,-0.11059574999999999,-0.97273275,0.0829925,13.475990772404472,4.860294558195122,
2023-07-24 18:18:58.140,0.137195,-1.4786584999999999,-0.64024425,-0.1123965,-0.9696962499999999,0.08050525,13.673357962436384,4.723650770077143,
2023-07-24 18:18:58.160,-0.304878,-1.1890242500000001,-0.3658535,-0.11044324999999999,-0.974655,0.08103925000000001,13.461260064377385,4.718225147067358,
2023-07-24 18:18:58.180,-0.289634,-1.0213415,-0.45731725,-0.1122435,-0.98074375,0.08222975,13.573849505213992,4.839837020953084,
2023-07-24 18:18:58.200,-0.167683,-0.929878,-1.43292675,-0.11151125,-0.980362,0.08058175000000001,13.40487186171513,4.678726052589802,
2023-07-24 18:18:58.220,-0.2134145,-0.64024425,-1.9817075000000002,-0.11151125,-0.9754484999999999,0.07952875,13.493050920197419,4.66759771009049,
2023-07-24 18:18:58.240,-0.53353675,-0.5792685,-1.7835364999999999,-0.11402925,-0.9708405,0.079086,13.727018775641191,4.708556278572267,
2023-07-24 18:18:58.260,-0.8902438,-0.5853657999999999,-1.3292684,-0.10971679999999999,-0.9719604000000001,0.081128,13.428817539964541,4.766564791253359,
2023-07-24 18:18:58.280,-0.8841465,-0.7164635,-0.9756097499999999,-0.111206,-0.971695,0.08279425,13.547319835936428,4.780042558440272,
2023-07-24 18:18:58.300,-0.640244,-0.91463425,-0.91463425,-0.11160300000000001,-0.9762115,0.08132924999999999,13.469702223716169,4.74260578668909,
2023-07-24 18:18:58.320,-0.304878,-0.929878,-0.91463425,-0.1132355,-0.97634875,0.08285525,13.623947523999952,4.8656727140708895,
2023-07-24 18:18:58.340,0.106707,-0.97560975,-0.8993905,-0.11387625,-0.97683725,0.0833435,13.624445218141958,4.905364221426893,
2023-07-24 18:18:58.360,0.259146,-1.234756,-1.14329275,-0.11064175,-0.97523475,0.08563225000000001,13.41584997115499,4.97719684239302,
2023-07-24 18:18:58.380,0.457317,-1.49390225,-1.0670730000000002,-0.11103825,-0.97406,0.08511350000000001,13.505162774249671,4.8771532001546944,
2023-07-24 18:18:58.400,0.3810975,-1.75304875,-1.097561,-0.1127165,-0.9715575000000001,0.08349625,13.515875344543495,4.881431972893772,
2023-07-24 18:18:58.420,0.0609755,-1.9664635000000001,-1.2042685,-0.1116945,-0.97386175,0.08465575,13.424111870199418,4.968510507633326,
2023-07-24 18:18:58.440,-0.25914625,-2.073171,-1.143293,-0.1083375,-0.972992,0.084198,13.248594604072686,4.987770371181206,
2023-07-24 18:18:58.460,-0.62500025,-2.14939,-1.29573175,-0.110504,-0.97499075,0.08335875000000001,13.458357628606386,4.891531039821928,
2023-07-24 18:18:58.480,-0.807927,-2.13414625,-1.03658525,-0.1091155,-0.9745635,0.08500675,13.402806792703387,4.994134555077963,
2023-07-24 18:18:58.500,-0.472561,-2.2560975,-0.96036575,-0.10884075,-0.973114,0.0864715,13.304799955168221,5.082631176313313,
2023-07-24 18:18:58.520,-0.2134145,-2.2560977500000003,-0.59451225,-0.10656750000000001,-0.973175,0.084732,13.222354925660895,5.087188736933733,
2023-07-24 18:18:58.540,-0.640244,-1.935976,-0.4115855,-0.10884075,-0.97164925,0.0820005,13.427299818939467,4.830424336067111,
2023-07-24 18:18:58.560,-1.356707,-1.692073,-0.32012175,-0.1091155,-0.97601325,0.082535,13.450236011891903,4.811257841570509,
2023-07-24 18:18:58.580,-1.707317,-1.73780475,-0.3963415,-0.110428,-0.97505175,0.08290125000000001,13.327351901178353,4.92293444875358,
2023-07-24 18:18:58.600,-1.50914625,-1.722561,-0.823171,-0.10969525,-0.97642525,0.0806885,13.436933790823453,4.771285200168315,
2023-07-24 18:18:58.620,-1.52439025,-1.58536575,-1.0213415000000001,-0.11016825,-0.97451775,0.077316,13.384139312101773,4.5552140019784275,
2023-07-24 18:18:58.640,-1.234756,-1.3262195,-1.09756075,-0.11129775,-0.97401425,0.07844525,13.343229957708466,4.6388417312786245,
2023-07-24 18:18:58.660,-0.8536582500000001,-1.1737805,-0.89939025,-0.11088575,-0.97583025,0.081192,13.455448310047302,4.744966121379122,
2023-07-24 18:18:58.680,-0.317073,-1.1707319999999999,-0.7073174,-0.1112914,-0.9753662000000001,0.081958,13.550136835226414,4.81903636532486,
2023-07-24 18:18:58.700,0.121951,-1.11280475,-0.503049,-0.11059574999999999,-0.97734075,0.082672,13.51462821851883,4.865197493188617,
2023-07-24 18:18:58.720,0.41158525,-1.0670730000000002,-0.44207325,-0.11039750000000001,-0.977295,0.080078,13.37257200065217,4.6898348489770285,
2023-07-24 18:18:58.740,0.304878,-1.25000025,-0.65548825,-0.111389,-0.9756315,0.08097825,13.396413819261255,4.787343440997049,
2023-07-24 18:18:58.760,0.3963415,-0.99085375,-0.97560975,-0.11363225,-0.9749909999999999,0.08473225000000001,13.52666759222243,4.926070089921545,
2023-07-24 18:18:58.780,0.65548775,-1.0365855,-0.8536587499999999,-0.11145025,-0.9728545000000001,0.08381625,13.567244791267647,5.008186071891515,
2023-07-24 18:18:58.800,0.21341475000000001,-1.0060975,-0.792683,-0.11062625,-0.97291575,0.08311450000000001,13.433510100979078,4.8330519327453345,
2023-07-24 18:18:58.820,-0.304878,-1.0365852500000001,-0.71646325,-0.11369325,-0.9776,0.08367925,13.518922110632282,4.94198121430162,
2023-07-24 18:18:58.840,-0.518293,-1.2042685,-1.21951225,-0.112915,-0.97822575,0.08358775,13.548910024670192,4.883944072105869,
2023-07-24 18:18:58.860,-0.5487807499999999,-1.32621925,-1.707317,-0.1127015,-0.97364775,0.08221425,13.538492345863524,4.730791684241019,
2023-07-24 18:18:58.880,-0.823171,-1.234756,-1.57012175,-0.11198425,-0.972412,0.080551,13.474451567001516,4.878594968194641,
2023-07-24 18:18:58.900,-0.9959346666666667,-1.1382113333333332,-1.3211380000000001,-0.11159233333333334,-0.9729610000000001,0.081584,13.512475124180355,4.8102846786281175,
2023-07-24 18:18:58.920,-0.8841465,-1.082317,-1.12804875,-0.11363224999999999,-0.9730985000000001,0.0793,13.6720669869499,4.656762813887347,
2023-07-24 18:18:58.940,-0.67073175,-1.06707325,-1.0213415000000001,-0.110962,-0.9759672500000001,0.080246,13.46614654120232,4.717722567848689,
2023-07-24 18:18:58.960,-0.35061,-0.960366,-1.1890245,-0.11221300000000001,-0.97480775,0.08059675,13.547061678093321,4.765235720680479,
2023-07-24 18:18:58.980,-0.09146325,-0.97560975,-1.112805,-0.11203,-0.97439575,0.07980324999999999,13.545327161354152,4.673542650297499,
2023-07-24 18:18:59.000,0.19817075,-0.97560975,-0.99085375,-0.1091155,-0.9747165,0.08187875,13.300827854195546,4.870840725106994,
2023-07-24 18:18:59.020,0.2439025,-1.0213415,-1.03658525,-0.1109465,-0.975418,0.08213825,13.450600688050933,4.823469034979119,
2023-07-24 18:18:59.040,0.0762195,-1.234756,-1.112805,-0.11019875,-0.97442625,0.08453375,13.395763315343657,4.976277297032844,
2023-07-24 18:18:59.060,-0.12195125000000001,-1.52439025,-1.14329275,-0.109558,-0.97325125,0.08343525,13.389113239129813,4.855375157791123,
2023-07-24 18:18:59.080,-0.4115855,-1.6768290000000001,-1.05182925,-0.10916125,-0.97431975,0.08340425,13.402624542673813,4.889810701961451,
2023-07-24 18:18:59.100,-0.792683,-1.7682927499999999,-0.8841462499999999,-0.1075135,-0.97268675,0.08195474999999999,13.267143764950475,4.859933992875462,
2023-07-24 18:18:59.120,-1.12804875,-1.859756,-0.92987825,-0.10867325,-0.9739227500000001,0.08181775,13.444222449966418,4.850444478637684,
2023-07-24 18:18:59.140,-1.37195125,-1.859756,-0.89939025,-0.10798675,-0.973236,0.0812685,13.402619278975038,4.786301971594888,
2023-07-24 18:18:59.160,-1.44817075,-1.66158525,-0.88414675,-0.109039,-0.9754945,0.08090175,13.295107310566046,4.784987070952148,
2023-07-24 18:18:59.180,-1.3109757499999999,-1.4176829999999998,-0.914634,-0.10801725,-0.97612,0.08026125,13.304589201140637,4.637325495517906,
2023-07-24 18:18:59.200,-0.79268275,-1.0365855,-0.86890275,-0.109726,-0.976654,0.07960500000000001,13.25367343762327,4.678234535851189,
2023-07-24 18:18:59.220,0.27439025,-0.8841465,-0.792683,-0.1098325,-0.9753722499999999,0.082306,13.388836543524043,4.865610904158331,
2023-07-24 18:18:59.240,0.91463425,-0.6859755,-0.60975625,-0.10708625,-0.977188,0.078247,13.235656734202749,4.506798813148329,
2023-07-24 18:18:59.260,0.7317072499999999,-0.36585375,-0.4115855,-0.10664375000000001,-0.97480775,0.078232,13.239825502745745,4.61955272506524,
2023-07-24 18:18:59.280,0.3658535,-0.335366,-0.2134145,-0.11021425,-0.97225975,0.080139,13.511939896637351,4.713235247888896,
2023-07-24 18:18:59.300,0.0762195,-0.472561,-0.30487825,-0.11007675,-0.97245775,0.07981875,13.489503074015254,4.723486467351364,
2023-07-24 18:18:59.320,-0.19817075,-0.518293,-0.44207325,-0.11039725,-0.970398,0.07905575000000001,13.329879814843238,4.63100231175742,
2023-07-24 18:18:59.340,-0.5487807499999999,-0.503049,-0.24390225,-0.11102275,-0.97138975,0.0793,13.549030075907204,4.603726437870591,
2023-07-24 18:18:59.360,-0.625,-0.4115855,-0.030488,-0.11074824999999999,-0.97509775,0.080414,13.428542187751567,4.645016467588469,
2023-07-24 18:18:59.380,-0.2642276666666667,-0.3658536666666667,0.06097566666666667,-0.11090099999999999,-0.9770099999999999,0.08420833333333333,13.467041203985778,5.004529416236362,
2023-07-24 18:18:59.400,0.22865875000000002,-0.44207325,0.0762195,-0.112671,-0.9781035,0.08380125000000001,13.61484468628386,4.95991692155097,
2023-07-24 18:18:59.420,0.74695125,-0.518293,-0.03048775,-0.1156465,-0.976242,0.0843965,13.724923662461862,4.95945371183867,
2023-07-24 18:18:59.440,0.8536587499999999,-0.60975625,0.10670725,-0.11636325,-0.9755095,0.08403025,13.760308938661495,4.954851025905285,
2023-07-24 18:18:59.460,0.80792675,-0.8384145,0.04573175,-0.1172485,-0.97464,0.08572350000000001,13.875631348716482,5.063791273946329,
2023-07-24 18:18:59.480,0.5792685,-1.3262195,-0.13719525,-0.11817925,-0.969742,0.08819575,13.929841512871839,5.262623425249529,
2023-07-24 18:18:59.500,0.25914625,-2.1493905,0.1829265,-0.11938499999999999,-0.969467,0.089691,14.0843320672764,5.327682866494207,
2023-07-24 18:18:59.520,-0.152439,-3.1554875,0.51829275,-0.119049,-0.96835325,0.09257499999999999,14.009683773361097,5.465347010426306,
2023-07-24 18:18:59.540,-0.960366,-4.192073,0.5792685,-0.1206665,-0.97290025,0.09338375,14.057546971400072,5.494257539879655,
2023-07-24 18:18:59.560,-1.6310975,-5.3810975,0.32012225,-0.12068175,-0.9750672499999999,0.09199550000000001,13.942816539082713,5.349524172796599,
2023-07-24 18:18:59.580,-2.0579270000000003,-6.25,-0.16768275,-0.1190185,-0.9747165,0.08764675,13.93936983320895,5.055722896861781,
2023-07-24 18:18:59.600,-2.6829264999999998,-6.69207325,-0.38109775,-0.120575,-0.972046,0.083313,13.98597214137741,4.867882224053041,
2023-07-24 18:18:59.620,-3.0792685,-6.6463415,-0.3963415,-0.1187285,-0.97268675,0.08148225,13.939838288465033,4.8030229783708975,
2023-07-24 18:18:59.640,-3.292683,-6.631098,-0.22865875000000002,-0.11717225,-0.97129825,0.08169575,13.949483791395892,4.875852152864084,
2023-07-24 18:18:59.660,-3.4908535,-6.69207325,0.12195125000000001,-0.1193085,-0.9698640000000001,0.084015,13.96644505177391,4.932066667899598,
2023-07-24 18:18:59.680,-3.780488,-7.1189025,0.35060975,-0.11689775,-0.97003175,0.084015,13.866527949869123,4.9267872298446775,
2023-07-24 18:18:59.700,-4.34451225,-7.713415,0.7012195,-0.11848449999999999,-0.9701845,0.08479300000000001,14.02290020527493,5.0312923214723995,
2023-07-24 18:18:59.720,-4.9237805,-8.50609775,1.0518290000000001,-0.1197815,-0.96902475,0.08576975,13.957368539091014,5.046311685545362,
2023-07-24 18:18:59.740,-5.640244,-9.405488,1.554878,-0.11885075,-0.9696045,0.085663,13.959347923456136,5.029646993338417,
2023-07-24 18:18:59.760,-6.60060975,-10.487805250000001,2.05792675,-0.11924725,-0.96676625,0.08358775,13.91436988226161,4.917415078137807,
2023-07-24 18:18:59.780,-7.759146749999999,-11.50914625,2.637195,-0.12225325000000001,-0.96549975,0.08050550000000001,14.248816208062358,4.698314749269137,
2023-07-24 18:18:59.800,-9.07012225,-12.39329325,3.5060975,-0.125763,-0.965271,0.07853675,14.434604583123068,4.618619288614575,
2023-07-24 18:18:59.820,-10.33536625,-13.353659,4.4817075,-0.12596125,-0.96171575,0.07498175,14.561508598004792,4.448144754614795,
2023-07-24 18:18:59.840,-11.53963425,-14.46646375,5.762195500000001,-0.126053,-0.96351625,0.07820099999999999,14.453090193358094,4.573096279156914,
2023-07-24 18:18:59.860,-12.337398666666667,-15.548780666666667,6.890244,-0.12868233333333334,-0.9668373333333333,0.07263166666666666,14.630415759949338,4.29685371903228,
2023-07-24 18:18:59.880,-13.1097565,-16.3567075,7.6524392500000005,-0.1305695,-0.96867375,0.07032775,14.693256347741794,4.021357646053282,
2023-07-24 18:18:59.900,-13.87195125,-17.240854,8.29268325,-0.1298525,-0.97306825,0.06431575,14.699221804763084,3.6242153558983645,
2023-07-24 18:18:59.920,-13.88719525,-17.8353665,7.88109775,-0.132492,-0.984375,0.062393,14.67931819433327,3.517505001447205,
2023-07-24 18:18:59.940,-12.37804875,-17.926828999999998,6.15853675,-0.13479625,-0.99939,0.05293275,14.663914661958124,2.919728916173561,
2023-07-24 18:18:59.960,-10.27439025,-17.713415,3.7195122499999997,-0.136322,-1.0024870000000001,0.0491945,14.734768200705204,2.7529442588150204,
2023-07-24 18:18:59.980,-7.5762195,-17.545732,0.6707314999999999,-0.1404875,-1.00488275,0.0512235,14.916867688116866,2.866605815516479,
2023-07-24 18:19:00.000,-4.5731705,-17.95731725,-1.417683,-0.14366175,-0.999725,0.04963675,15.160576252758787,2.8137511838059694,
2023-07-24 18:19:00.020,-2.6524389999999998,-18.673780999999998,-2.94207325,-0.140808,-0.99232475,0.04220575,14.993405207024999,2.430999286505873,
2023-07-24 18:19:00.040,-1.21951225,-19.161586,-3.9481710000000003,-0.13624599999999998,-0.9941865,0.04139725,14.757641201761274,2.4292953325919697,
2023-07-24 18:19:00.060,0.7317072499999999,-19.740854,-5.198171,-0.131836,-0.9958955,0.04693625,14.479576271687222,2.69703552776123,
2023-07-24 18:19:00.080,4.054878,-20.51829275,-6.8292685,-0.12776175,-1.0028535,0.04834,14.130795822744588,2.780890386033626,
2023-07-24 18:19:00.100,7.6067075,-21.143293,-8.36890275,-0.12397775,-1.0016175,0.042998999999999996,13.85728908152403,2.516637373388548,
2023-07-24 18:19:00.120,10.92987825,-21.0365865,-9.40548775,-0.12168875,-0.9966585,0.0452575,13.942130715257797,2.6308853750169092,
2023-07-24 18:19:00.140,13.0945125,-21.021343,-9.93902475,-0.116806,-0.9769135,0.04281625,13.742803639889111,2.7365904263149474,
2023-07-24 18:19:00.160,13.09451275,-20.30487875,-9.4664635,-0.109085,-0.9599610000000001,0.0394745,13.46772173066094,2.599392408558842,
2023-07-24 18:19:00.180,11.40243925,-18.7804875,-7.6371952499999995,-0.1021575,-0.95632925,0.040802000000000005,12.987180270697856,2.509954529592669,
2023-07-24 18:19:00.200,9.3292685,-16.95122,-5.5792684999999995,-0.09629825,-0.9560697499999999,0.05213925,12.743852671347575,3.2129453459415416,
2023-07-24 18:19:00.220,7.5,-15.24390275,-3.81097575,-0.09187325,-0.9594115,0.05403125,12.41543528954925,3.2231829844419835,
2023-07-24 18:19:00.240,5.8993905,-13.4146345,-2.2560975,-0.09022524999999999,-0.959427,0.0616455,12.22530271414449,3.7426339741374974,
2023-07-24 18:19:00.260,4.03963425,-11.32621975,-0.777439,-0.087326,-0.9573365,0.06265275,12.224773001741852,3.7648070034824173,
2023-07-24 18:19:00.280,2.10365825,-9.00914625,0.6097565,-0.08724975,-0.9627075,0.0665895,12.100945590701897,3.8983943688872174,
2023-07-24 18:19:00.300,0.18292675,-6.5243905,1.905488,-0.086716,-0.96556075,0.07241825,12.009136841601666,4.324465358592477,
2023-07-24 18:19:00.320,-1.11280475,-4.573171,2.53048775,-0.0914765,-0.9689485,0.079941,12.400688693360124,4.713926407615858,
2023-07-24 18:19:00.340,-1.4634146666666668,-3.394309,2.5609756666666668,-0.093872,-0.9691976666666666,0.08294666666666667,12.44314313567268,4.853162676829214,
2023-07-24 18:19:00.360,-2.027439,-2.362805,2.85060975,-0.095169,-0.969345,0.08190900000000001,12.644492725617418,4.829997255357171,
2023-07-24 18:19:00.380,-3.140244,-1.37195125,3.30792675,-0.0984955,-0.9712372499999999,0.08377075,12.806995141556868,4.927433416331539,
2023-07-24 18:19:00.400,-4.28353675,-1.0213415000000001,3.597561,-0.1031495,-0.9710084999999999,0.0895235,13.019465546185963,5.299708682554126,
2023-07-24 18:19:00.420,-5.2439025,-1.4939025,3.948171,-0.10542325,-0.972626,0.08993525,13.218220315768356,5.22606411294813,
2023-07-24 18:19:00.440,-5.85365875,-2.3323169999999998,4.2225607499999995,-0.10632325000000001,-0.9728395,0.09048425,13.18975787168202,5.302909298281044,
2023-07-24 18:19:00.460,-6.2347565,-3.4756099999999996,4.481707500000001,-0.11187725,-0.9768525,0.09053025,13.405854602445437,5.3071264909277645,
2023-07-24 18:19:00.480,-6.35670775,-4.7560975,4.2987804999999994,-0.11351025000000001,-0.9813382500000001,0.08831775,13.575445236877115,5.169617544997671,
2023-07-24 18:19:00.500,-6.112805,-6.3414635,3.71951225,-0.11828625000000001,-0.982132,0.08744825,13.924359017167205,5.013130483025066,
2023-07-24 18:19:00.520,-6.036585499999999,-8.3079265,2.62195125,-0.12292499999999999,-0.987259,0.08554075,14.055997964067615,5.0289008765709795,
2023-07-24 18:19:00.540,-5.960365749999999,-10.487805,1.4634147499999999,-0.12660225,-0.983154,0.08093275,14.385131195820456,4.6656930238007845,
2023-07-24 18:19:00.560,-5.5487804999999994,-12.378049,0.36585375,-0.126602,-0.98326125,0.07435625,14.305197374311852,4.19354822293257,
2023-07-24 18:19:00.580,-5.182927,-13.7042685,-0.5487802500000001,-0.12783825,-0.98201,0.07067875,14.391317397758918,4.093791218252015,
2023-07-24 18:19:00.600,-5.1524392500000005,-14.710366,-1.15853675,-0.12658675,-0.9794922500000001,0.06657425,14.314369852387117,3.81845112778435,
2023-07-24 18:19:00.620,-5.30487825,-15.533536999999999,-1.6463412499999999,-0.12712075,-0.9786835,0.06449875,14.309885480287754,3.738522790137146,
2023-07-24 18:19:00.640,-5.640244,-16.3567075,-2.10365875,-0.12751774999999999,-0.97695925,0.0624235,14.388781041930585,3.59604436820959,
2023-07-24 18:19:00.660,-5.792683,-17.01219575,-2.1036585,-0.12599175,-0.9729005000000001,0.06381225,14.3229436086338,3.740208365932986,
2023-07-24 18:19:00.680,-5.67073175,-17.591464000000002,-2.5762195,-0.12252775,-0.97764575,0.06387325,14.06464322122904,3.695147912791441,
2023-07-24 18:19:00.700,-5.36585375,-18.18597575,-2.5762192500000003,-0.12086474999999999,-0.98167425,0.0588075,13.970270228272575,3.5459833764864612,
2023-07-24 18:19:00.720,-5.289634250000001,-18.14024375,-2.34756075,-0.1172485,-0.98056025,0.0601655,13.804526397602508,3.4513239572356085,
2023-07-24 18:19:00.740,-4.969512,-18.27743975,-1.265244,-0.113266,-0.97120675,0.054855249999999994,13.588005654184805,3.232722456606787,
2023-07-24 18:19:00.760,-4.29878075,-18.307928,0.2439025,-0.10884075,-0.95716875,0.05546575,13.496229580210738,3.286277713390973,
2023-07-24 18:19:00.780,-3.0182925,-18.353659,3.44512225,-0.1076355,-0.9496005,0.05943325,13.496875129028176,3.5630322786091924,
2023-07-24 18:19:00.800,-1.6158537499999999,-19.16158625,8.20121975,-0.10917675,-0.949539,0.0657655,13.658178141967909,3.970754850348058,
2023-07-24 18:19:00.820,-0.487805,-20.142277333333336,11.727642666666668,-0.109721,-0.9534303333333334,0.067932,13.573390152174,4.265173753615983,
2023-07-24 18:19:00.840,-0.09146325,-20.82317125,14.131098,-0.11302175,-0.9653627499999999,0.0615845,13.674250872246219,3.6979438432125917,
2023-07-24 18:19:00.860,-0.2134145,-20.82317125,15.1371955,-0.1144565,-0.97840875,0.05667125,13.743242405462809,3.29924943537673,
2023-07-24 18:19:00.880,-0.16768275,-19.344513,13.902439,-0.11300625,-0.99507125,0.05204775,13.667337008963187,3.059179276594861,
2023-07-24 18:19:00.900,0.10670725,-16.46341475,10.746951249999999,-0.116684,-1.0018465,0.047378500000000004,13.72975917487666,2.7300959227981565,
2023-07-24 18:19:00.920,0.0914635,-13.18597625,6.753049,-0.11878949999999999,-0.99908425,0.04930125,13.858840500735681,2.838960533298682,
2023-07-24 18:19:00.940,-0.2591465,-10.015244,2.5762195,-0.12255825000000001,-0.99821475,0.05325325,13.987965844318495,3.048234179717525,
2023-07-24 18:19:00.960,-0.9908535,-7.515244,-0.48780499999999993,-0.127243,-0.9841765,0.0585325,14.311613240929603,3.3365320746738476,
2023-07-24 18:19:00.980,-2.14939025,-5.4878047500000005,-2.10365875,-0.12796025,-0.980057,0.061264,14.475026939573745,3.615745706665834,
2023-07-24 18:19:01.000,-3.49085375,-4.25304875,-3.15548775,-0.12924175,-0.9784545,0.06353775,14.462257066360173,3.713771172824181,
2023-07-24 18:19:01.020,-4.6646339999999995,-3.7500002500000003,-4.11585375,-0.12855525,-0.976822,0.06565875,14.427145901888458,3.832212165001401,
2023-07-24 18:19:01.040,-5.36585375,-3.7042687499999998,-4.9695125,-0.12872299999999998,-0.979675,0.06668075,14.389679692893978,3.9044587431394504,
2023-07-24 18:19:01.060,-5.609756,-4.1463415,-5.3963415,-0.128891,-0.9785917500000001,0.0663755,14.438260622234218,3.8404396999658417,
2023-07-24 18:19:01.080,-5.39634125,-5.01524375,-5.609756,-0.1287995,-0.97756925,0.0643615,14.4860993495695,3.7416896253606637,
2023-07-24 18:19:01.100,-4.9390245,-5.76219525,-5.807927,-0.12696825,-0.9779815,0.06141675,14.383939322130445,3.5625501578414003,
2023-07-24 18:19:01.120,-4.19207325,-6.2042684999999995,-6.06707325,-0.1251985,-0.9816130000000001,0.0552215,14.180655786406263,3.1944019457832127,
2023-07-24 18:19:01.140,-3.8719515,-6.25000025,-6.310976,-0.12324525,-0.98315425,0.0534055,14.052118332355036,3.1863693878149277,
2023-07-24 18:19:01.160,-3.71951225,-6.05182925,-6.768293,-0.12181075,-0.9815827500000001,0.049408,13.994414770184726,2.8511134466087356,
2023-07-24 18:19:01.180,-3.5365855,-5.59451225,-7.22560975,-0.11753825,-0.98178125,0.04618825,13.767963184033704,2.653939155852491,
2023-07-24 18:19:01.200,-3.643293,-5.0609755,-7.682927,-0.1157685,-0.97976675,0.04696625,13.743493432419044,2.7183281429042694,
2023-07-24 18:19:01.220,-4.070122,-4.862805,-7.9878047500000005,-0.1142425,-0.97837825,0.04701225,13.6669768252899,2.7617509930912902,
2023-07-24 18:19:01.240,-4.420732,-4.679878,-8.125,-0.1123505,-0.9775240000000001,0.043518,13.490568683290022,2.5238306027271236,
2023-07-24 18:19:01.260,-4.176829,-4.34451225,-8.0030485,-0.10862725,-0.97692875,0.04214475,13.253563178741786,2.480228257616986,
2023-07-24 18:19:01.280,-4.0650406666666665,-4.349593666666666,-7.621951666666667,-0.10870400000000001,-0.9739990000000001,0.04396566666666666,13.420180055203,2.525826685471903,
2023-07-24 18:19:01.300,-4.207317,-5.3353660000000005,-7.46951225,-0.1107025,-0.9794769999999999,0.05175775,13.35817690720532,3.0450577600230275,
2023-07-24 18:19:01.320,-3.6737805,-7.7286585,-7.39329275,-0.11167925000000001,-0.9810942500000001,0.057358,13.508157124503903,3.35473654637849,
2023-07-24 18:19:01.340,-2.5762194999999997,-10.2286585,-7.17987825,-0.10832225000000001,-0.98562625,0.055801500000000004,13.246799713129597,3.1650720603963123,
2023-07-24 18:19:01.360,-1.6158535,-11.81402475,-7.43902425,-0.10240175,-0.9857177500000001,0.045578,12.971334002198086,2.676770668031722,
2023-07-24 18:19:01.380,-1.0365855,-11.981707499999999,-7.57622,-0.09536725,-0.98550425,0.036911,12.385282169762398,2.1209463335198606,
2023-07-24 18:19:01.400,-0.99085375,-10.990854,-7.95731725,-0.09245325,-0.989517,0.03227225,12.310950868961108,1.8532943375483768,
2023-07-24 18:19:01.420,-1.3719510000000001,-10.030488,-9.19207325,-0.08844,-0.9874725,0.033615000000000006,12.04198701188443,2.000861963073149,
2023-07-24 18:19:01.440,-2.10365875,-10.045732000000001,-10.182927,-0.0881805,-0.98510725,0.044388,12.098109569854323,2.672280874715355,
2023-07-24 18:19:01.460,-2.33231725,-11.79878075,-11.21951275,-0.08715824999999999,-0.984497,0.05499275,12.04621652027474,3.2301273629052716,
2023-07-24 18:19:01.480,-2.21036625,-14.02439025,-11.40243925,-0.08560175,-0.9841615,0.060806,11.925359730243102,3.5551970225386214,
2023-07-24 18:19:01.500,-1.37195125,-16.90548825,-11.219512250000001,-0.07945250000000001,-0.989685,0.06842025,11.461718093011328,4.027663896131791,
2023-07-24 18:19:01.520,0.625,-20.4115855,-10.73170775,-0.07455425,-0.99545275,0.08003225,11.199392826576826,4.564833562930858,
2023-07-24 18:19:01.540,5.2896339999999995,-25.091464000000002,-9.0396345,-0.07464599999999999,-1.005905,0.097946,11.16197004393527,5.520606148564276,
2023-07-24 18:19:01.560,13.50609825,-31.09756225,-7.881098,-0.07408125,-1.01411425,0.12307725,11.037680320292964,6.683588703985052,
2023-07-24 18:19:01.580,23.24695225,-39.25305,-5.56402475,-0.08009325,-1.00442475,0.131485,11.45993193795502,7.651949424325657,
2023-07-24 18:19:01.600,29.80182975,-46.7378075,-5.7164635,-0.06987,-0.98303225,0.108139,11.163629084118668,7.133552525708112,
2023-07-24 18:19:01.620,30.3048785,-50.625,-4.63414675,-0.06236275,-0.96148675,0.0921935,10.715266484384863,6.580935938062488,
2023-07-24 18:19:01.640,27.606707749999998,-51.4176845,-1.707317,-0.044357,-0.94238275,0.07118225,10.257053295773076,6.00412861343559,
2023-07-24 18:19:01.660,22.30182975,-48.8871955,-0.3810975,-0.034317,-0.9408265,0.07643125,9.463241494423535,5.402833660311451,
2023-07-24 18:19:01.680,17.78963475,-45.41158675,0.89939025,-0.0285645,-0.9484865,0.08131425,8.758111447725177,5.071400244804806,
2023-07-24 18:19:01.700,13.841463749999999,-41.1280505,0.83841475,-0.0182645,-0.9509885,0.08874525,8.133554035810697,5.429501171852905,
2023-07-24 18:19:01.720,9.14634175,-36.478660000000005,1.81402475,-0.01852425,-0.9539792500000001,0.09484875000000001,8.093046658039356,5.8076103814155715,
2023-07-24 18:19:01.740,3.79573175,-31.692074499999997,3.9939025,-0.02098075,-0.95718375,0.08822625,8.10228941524553,5.2941839127121995,
2023-07-24 18:19:01.760,-1.6463413333333332,-26.504065666666666,5.792683333333334,-0.017008666666666665,-0.9575606666666667,0.07757599999999999,8.009703516872131,4.585524098542692,
2023-07-24 18:19:01.780,-7.4085365,-21.32622,7.0121952499999995,-0.01722725,-0.9613342500000001,0.07914725,8.019903245772774,4.740765543887676,
2023-07-24 18:19:01.800,-13.23170775,-17.24085375,6.0060975,-0.024765000000000002,-0.968872,0.102341,8.368851137922867,5.455025972709954,
2023-07-24 18:19:01.820,-16.82926825,-17.6067075,4.83231725,-0.04087825,-0.9692535,0.13108825,8.865355066003268,6.343788509593786,
2023-07-24 18:19:01.840,-17.804878,-21.7835365,5.09146375,-0.04972825,-0.970062,0.13627625,9.520860823723666,7.159293434708644,
2023-07-24 18:19:01.860,-18.490854249999998,-26.2804885,5.67073175,-0.052124000000000004,-0.97375475,0.12428275,10.076786382695076,7.170248460724665,
2023-07-24 18:19:01.880,-19.17682975,-28.7347565,6.097561000000001,-0.047211,-0.979721,0.0929565,9.923074783440349,5.730744703087858,
2023-07-24 18:19:01.900,-19.832317500000002,-28.27743975,6.585366,-0.04046625,-0.9771117500000001,0.07014475,9.462893427612826,4.183352953680881,
2023-07-24 18:19:01.920,-19.771342,-26.06707375,6.03658525,-0.03544625,-0.99151625,0.0613705,9.036425992850155,3.4780423537170577,
2023-07-24 18:19:01.940,-17.97256175,-23.44512225,4.19207325,-0.0345915,-1.0031124999999999,0.0569155,8.892766296345663,3.1162865154635,
2023-07-24 18:19:01.960,-14.83231725,-19.78658575,2.04268275,-0.03179925,-1.008957,0.0461425,8.808736512435594,2.5253259316677514,
2023-07-24 18:19:01.980,-11.72256125,-14.984756,0.71646325,-0.03085325,-1.0015257499999999,0.03570525,8.88265119426,2.045358182452375,
2023-07-24 18:19:02.000,-8.6737805,-9.390244,0.4115855,-0.02716075,-0.9983522499999999,0.03146375,8.488406142959285,1.822084214330708,
2023-07-24 18:19:02.020,-5.777438999999999,-3.71951225,-0.655488,-0.02929675,-0.99809275,0.03125,8.741854185948604,1.6780476093306191,
2023-07-24 18:19:02.040,-3.3689025,1.43292675,-1.58536575,-0.031021,-0.994217,0.032745250000000004,8.775038464285686,1.8918455288602516,
2023-07-24 18:19:02.060,-0.59451225,5.92987775,-2.027439,-0.035598500000000005,-0.9957275,0.0380555,8.940375767617383,2.1419017725250242,
2023-07-24 18:19:02.080,2.36280475,9.39024425,-2.5762195,-0.0393525,-0.996292,0.043625,9.297156250723361,2.539656551652776,
2023-07-24 18:19:02.100,4.19207325,11.448171,-3.429878,-0.04414375,-0.98876925,0.047683500000000004,9.608040264719541,2.7726328738038077,
2023-07-24 18:19:02.120,4.42073175,12.48475625,-4.02439025,-0.04447925,-0.9811857500000001,0.05264275,9.5129926174249,3.128815934704477,
2023-07-24 18:19:02.140,4.00914625,12.4695125,-3.6585365000000003,-0.045395,-0.9770355,0.061661,9.671086718063954,3.6828078838502663,
2023-07-24 18:19:02.160,3.6737805,11.554878500000001,-2.652439,-0.04449475,-0.97891225,0.0683135,9.56185283771363,4.022099578008238,
2023-07-24 18:19:02.180,3.91768325,10.19817075,-1.8140245,-0.04028325,-0.983017,0.07809475,9.324147677401506,4.624860673328186,
2023-07-24 18:19:02.200,4.5884145,8.8262195,-1.570122,-0.040985,-0.9875335000000001,0.08282475,9.437404973193445,4.856779456301943,
2023-07-24 18:19:02.220,5.32012225,7.4390245,-1.554878,-0.0419005,-0.99096675,0.08537275,9.381707914247281,4.936999255003272,
2023-07-24 18:19:02.240,5.853658666666667,6.524390333333334,-2.154471666666667,-0.041605666666666666,-0.9903966666666667,0.087382,9.44497314078266,5.0289161808864735,
2023-07-24 18:19:02.260,6.17378075,5.97561,-2.51524375,-0.04129025,-0.9871825000000001,0.0878905,9.393072196598503,5.107098193540629,
2023-07-24 18:19:02.280,6.06707325,5.60975625,-2.8658537500000003,-0.0424195,-0.9838715,0.09198025,9.411904321429866,5.405799304856117,
2023-07-24 18:19:02.300,5.670732,5.01524425,-3.04878025,-0.045517,-0.97801225,0.09187325,9.62338747239766,5.46482940771633,
2023-07-24 18:19:02.320,4.9542684999999995,4.5426832500000005,-3.0487805000000003,-0.0466615,-0.96719375,0.089752,9.841792892349432,5.33354535413369,
2023-07-24 18:19:02.340,3.902439,4.222561,-2.77439025,-0.04913325,-0.96650675,0.08992025000000001,9.920603204073188,5.3219435778503765,
2023-07-24 18:19:02.360,3.47560975,3.734756,-3.03353675,-0.0490265,-0.9836272500000001,0.0932315,9.837208264951954,5.4174227057513065,
2023-07-24 18:19:02.380,4.2835365,3.140244,-4.17682925,-0.0483855,-0.99674975,0.096466,9.716510264659945,5.573602123868582,
2023-07-24 18:19:02.400,5.320122,2.5304875,-5.4115855,-0.049117999999999995,-0.9996639999999999,0.09449774999999999,9.793678397135828,5.477576619108355,
2023-07-24 18:19:02.420,5.792683,2.2560975,-5.8993905,-0.045273,-0.994156,0.0937045,9.61779729981857,5.507343404978201,
2023-07-24 18:19:02.440,6.63109775,1.61585375,-5.82317075,-0.04464725,-0.98883075,0.09645075,9.571187078461847,5.6769369829613225,
2023-07-24 18:19:02.460,7.1493905,0.48780524999999997,-5.96036575,-0.044983,-0.9754335,0.09654225,9.56862035131929,5.7202354637654125,
2023-07-24 18:19:02.480,6.905488,-0.4115855,-5.50304875,-0.0453035,-0.970886,0.09967025,9.676120473592555,5.8465771581387,
2023-07-24 18:19:02.500,6.707317,-1.707317,-4.4817072499999995,-0.043243500000000004,-0.9676665,0.10510225,9.517069492382646,6.294559334869184,
2023-07-24 18:19:02.520,6.5396345,-3.33841425,-4.37500025,-0.0419615,-0.971924,0.11154175,9.465477133320164,6.5742541183858165,
2023-07-24 18:19:02.540,6.70731725,-5.1219515,-4.19207325,-0.037018,-0.9783175,0.11604325,9.097875636317234,6.749085027788112,
2023-07-24 18:19:02.560,7.1036589999999995,-6.905488249999999,-3.7500002500000003,-0.03437825,-0.980469,0.12185675,8.96303178919905,7.125777232001035,
2023-07-24 18:19:02.580,7.210366,-8.628049,-3.140244,-0.030121000000000002,-0.9799344999999999,0.12323,8.708871083863237,7.110075046687925,
2023-07-24 18:19:02.600,6.52439025,-9.57317075,-2.2256097500000003,-0.025711,-0.9742585,0.11679049999999999,8.625932236922338,6.9637755424013505,
2023-07-24 18:19:02.620,5.01524425,-9.375,-0.7012195,-0.020416,-0.964203,0.110153,8.282026202225609,6.677934969365992,
2023-07-24 18:19:02.640,2.6676830000000002,-8.04878075,0.7012195,-0.01853925,-0.9630585,0.10345475000000001,8.053830914286372,6.132952324830136,
2023-07-24 18:19:02.660,0.07621974999999998,-6.3109755,2.17987825,-0.018432749999999998,-0.959549,0.10304275,8.115632627014023,6.131957289274162,
2023-07-24 18:19:02.680,-2.1036585,-4.512195,2.820122,-0.017212,-0.96734625,0.10655200000000001,8.152531138128651,6.3323843972747085,
2023-07-24 18:19:02.700,-3.32317075,-3.0182925000000003,3.20121925,-0.01995825,-0.9717715,0.10801725,8.222646026113821,6.308071139875729,
2023-07-24 18:19:02.720,-3.943089333333333,-1.8089433333333333,4.004065333333333,-0.024800666666666665,-0.9733276666666667,0.10892733333333333,8.526387497078181,6.378531850652526,
2023-07-24 18:19:02.740,-4.07012175,-0.96036575,4.9542684999999995,-0.02833575,-0.97680675,0.10774225,8.675715051704145,6.315480853501896,
2023-07-24 18:19:02.760,-3.78048775,-0.7317075,6.06707325,-0.030838,-0.98024,0.11009225,8.778846489046387,6.394257952902024,
2023-07-24 18:19:02.780,-3.03353675,-1.3262194999999999,6.57012225,-0.03569025,-0.9853365000000001,0.1138,9.038771866664263,6.70139912415376,
2023-07-24 18:19:02.800,-1.95121975,-2.5762194999999997,7.10365875,-0.04110725,-0.9795685,0.112915,9.410781708100885,6.602852990324365,
2023-07-24 18:19:02.820,-1.356707,-3.82621975,7.530488,-0.04541,-0.9670715,0.10745225,9.650217572260289,6.234294134394126,
2023-07-24 18:19:02.840,-1.280488,-4.557927,7.3323175,-0.04989625,-0.96855175,0.109085,9.87652466329795,6.412608403434355,
2023-07-24 18:19:02.860,-1.0060975,-5.03048775,6.722561,-0.049728499999999995,-0.9792635000000001,0.10873425,10.043798859382285,6.259457133404268,
2023-07-24 18:19:02.880,-0.83841475,-5.22865875,5.33536625,-0.05207825,-0.9890135,0.10900875,10.090759966293874,6.240595655419924,
2023-07-24 18:19:02.900,-0.640244,-5.487805,2.9420729999999997,-0.05119325,-0.99966425,0.11445625,9.952456454434085,6.480212831767339,
2023-07-24 18:19:02.920,0.0,-5.85365875,0.8384145,-0.0502625,-1.00196825,0.1150055,9.833576862819235,6.590425617971924,
2023-07-24 18:19:02.940,0.472561,-5.960366,-0.6859759999999999,-0.04939275,-0.99598675,0.11218275,9.779585670869672,6.437061319547844,
2023-07-24 18:19:02.960,0.8841465,-5.68597575,-0.625,-0.04594425,-0.9791259999999999,0.1131135,9.627237671100993,6.670957316042738,
2023-07-24 18:19:02.980,1.082317,-5.3963415,0.167683,-0.045944,-0.96994,0.11633275,9.66950943263128,6.879736126507936,
2023-07-24 18:19:03.000,0.8841465,-5.4573167499999995,1.402439,-0.04632575,-0.9646455,0.1159365,9.779206954769208,6.897299890922611,
2023-07-24 18:19:03.020,-0.18292699999999998,-5.22865825,2.5,-0.04925525,-0.9648285,0.11004649999999999,9.963403829284871,6.533774008427727,
2023-07-24 18:19:03.040,-1.75304875,-4.72561,2.94207325,-0.05030825,-0.964691,0.11032125000000001,9.921236108391042,6.454750576213051,
2023-07-24 18:19:03.060,-2.89634125,-4.176829,3.59756125,-0.0526275,-0.9688415,0.1134645,10.219563513654535,6.6233226050134775,
2023-07-24 18:19:03.080,-3.58231725,-4.2987805,4.17682925,-0.0609285,-0.9714965,0.1172485,10.652701461727418,6.886632656708102,
2023-07-24 18:19:03.100,-3.90243925,-5.1067072499999995,4.40548775,-0.064026,-0.9747312499999999,0.11570725,10.721698695395986,6.749416468113964,
2023-07-24 18:19:03.120,-4.253049,-6.1432927500000005,4.832317,-0.06613175,-0.9741365,0.1160125,10.926816373328712,6.819604480178121,
2023-07-24 18:19:03.140,-4.28353675,-7.5914635,5.22865875,-0.06857275,-0.9779205,0.119095,10.988324438097536,7.004725406059549,
2023-07-24 18:19:03.160,-3.62804925,-9.542683,5.67073175,-0.070099,-0.9767305,0.1209565,11.071818463365773,7.035101406421404,
2023-07-24 18:19:03.180,-3.0335365,-12.012195,6.20426825,-0.07456975,-0.975937,0.12467975,11.435083983622789,7.197481211805659,
2023-07-24 18:19:03.200,-2.601626,-14.634146666666666,6.239837333333334,-0.07832833333333333,-0.9785766666666667,0.128601,11.601240654031935,7.5329005249112315,
2023-07-24 18:19:03.220,-2.30182925,-17.774390750000002,6.082317,-0.07991024999999999,-0.97885125,0.12796025,11.605302323888594,7.363328491264788,
2023-07-24 18:19:03.240,-2.24085375,-21.06707325,6.2195125,-0.080841,-0.975113,0.1235045,11.77692764960318,7.254651710157823,
2023-07-24 18:19:03.260,-2.6981705,-23.50609825,6.03658525,-0.07562275,-0.97744725,0.11857575000000001,11.481258293788429,6.91111478598647,
2023-07-24 18:19:03.280,-2.9878045,-24.7103665,6.0518295,-0.0741425,-0.97206125,0.1052705,11.417531660650575,6.076027248801019,
2023-07-24 18:19:03.300,-3.323171,-24.6646355,6.2042684999999995,-0.0694275,-0.9790194999999999,0.10519425,11.039604826296241,6.106430536091423,
2023-07-24 18:19:03.320,-2.54573175,-24.1615855,5.7774392500000005,-0.0673065,-0.97639475,0.09896825000000001,10.964538703125314,5.718306275019685,
2023-07-24 18:19:03.340,-1.844512,-23.1250005,5.48780475,-0.0681915,-0.96983325,0.094879,11.060837584705915,5.585496239182028,
2023-07-24 18:19:03.360,-1.692073,-22.1341475,6.23475625,-0.07135,-0.978424,0.096649,11.085274689456888,5.619128000699199,
2023-07-24 18:19:03.380,-1.8140245,-21.631098,7.987805249999999,-0.07527175,-0.9718015,0.09518425,11.38662889160723,5.62931137124756,
2023-07-24 18:19:03.400,-1.905488,-21.341464000000002,8.10975625,-0.07818625,-0.97583025,0.09843450000000001,11.556786000272204,5.747041858415578,
2023-07-24 18:19:03.420,-1.63109725,-20.70122,8.32317075,-0.07942199999999999,-0.974716,0.0914155,11.707465078286816,5.327575911279986,
2023-07-24 18:19:03.440,-1.707317,-19.405488,8.39939075,-0.0788725,-0.97416675,0.0912935,11.59882907528646,5.394671142799027,
2023-07-24 18:19:03.460,-1.25,-17.91158525,7.6371955,-0.0803375,-0.985901,0.09187325,11.852985980854676,5.313756326054708,
2023-07-24 18:19:03.480,-0.5640244999999999,-16.2957315,6.95121975,-0.0806885,-0.98164375,0.089676,11.659142770164898,5.289858241919397,
2023-07-24 18:19:03.500,0.0762195,-14.39024425,5.91463425,-0.0822295,-0.986374,0.09225475,11.77091135761549,5.288484582055887,
2023-07-24 18:19:03.520,0.9908539999999999,-12.75914675,5.30487825,-0.08509825,-0.986374,0.099579,12.019620767473988,5.755951145267545,
2023-07-24 18:19:03.540,2.027439,-11.69207325,4.832317,-0.08755475,-0.981018,0.10090625,12.172643002406197,5.951268628110363,
2023-07-24 18:19:03.560,2.804878,-10.929878,3.887195,-0.08982825,-0.9789732499999999,0.10426325,12.239552393388514,6.147260702195197,
2023-07-24 18:19:03.580,3.15548775,-10.0000005,3.42987825,-0.08679175,-0.97283925,0.10256975,12.108947747582036,6.082809327632006,
2023-07-24 18:19:03.600,3.109756,-8.7195125,3.42987825,-0.088837,-0.970032,0.1045835,12.258629226887884,6.200487936849264,
2023-07-24 18:19:03.620,2.637195,-7.40853675,3.6585367499999997,-0.08964575,-0.97244275,0.107666,12.293848001333153,6.377161097645271,
2023-07-24 18:19:03.640,2.14939025,-6.5243905,3.460366,-0.09190375,-0.97387725,0.11050425,12.246134746515622,6.447793985160587,
2023-07-24 18:19:03.660,1.4939025,-5.79268275,3.00304875,-0.09416175,-0.97065725,0.1117705,12.332400053666703,6.69997571269527,
2023-07-24 18:19:03.680,0.9552846666666666,-4.9186993333333335,2.8658536666666663,-0.09259033333333333,-0.968465,0.11328166666666667,12.507626178328337,6.667507386274441,
2023-07-24 18:19:03.700,0.35060975,-4.02439025,2.972561,-0.0946505,-0.968567,0.1147155,12.550828597832492,6.793986548513622,
2023-07-24 18:19:03.720,-0.121951,-3.628049,3.0640245,-0.09750375,-0.96850575,0.11637875,12.784458473174034,6.825141065629808,
2023-07-24 18:19:03.740,-0.73170725,-3.0182925000000003,2.80487775,-0.10018925000000001,-0.9708405,0.11756875,12.811032617411705,6.897690124498531,
2023-07-24 18:19:03.760,-1.60060975,-2.36280475,2.530488,-0.1016235,-0.9737855,0.11358625,12.911305882209312,6.595446021103214,
2023-07-24 18:19:03.780,-2.2713415,-1.265244,2.19512175,-0.1021575,-0.973602,0.11196875,12.906422751936823,6.589011277668128,
2023-07-24 18:19:03.800,-3.01829275,0.0762195,1.1737805,-0.10392775,-0.9773102499999999,0.11170975,12.949171627734074,6.538404812464478,
2023-07-24 18:19:03.820,-3.15548775,1.280488,-0.21341475000000001,-0.107193,-0.97789,0.11175550000000001,13.260397904472882,6.525066384597295,
2023-07-24 18:19:03.840,-2.820122,2.2256097500000003,-1.41768275,-0.10484299999999999,-0.976761,0.11105324999999999,13.104110088129445,6.537521143667469,
2023-07-24 18:19:03.860,-2.22561,2.63719525,-2.4085365,-0.10569775000000001,-0.9776152499999999,0.11618025,12.977413055245506,6.708673608917628,
2023-07-24 18:19:03.880,-1.44817075,2.545732,-2.8353657500000002,-0.10746775,-0.97550975,0.11427324999999999,13.1669962013952,6.736259388959397,
2023-07-24 18:19:03.900,-0.77743925,2.30182925,-2.4999997499999997,-0.10391225,-0.97203075,0.11499025,13.001855530956988,6.802317598812742,
2023-07-24 18:19:03.920,-0.35060975,1.75304875,-2.4085365,-0.103485,-0.97351075,0.113739,13.1454659604357,6.706779154693685,
2023-07-24 18:19:03.940,0.0,1.34146375,-2.22560975,-0.10273750000000001,-0.96846,0.1133575,12.989361164729004,6.679962970269294,
2023-07-24 18:19:03.960,-0.13719525,1.15853675,-1.24999975,-0.10408,-0.96711725,0.1116635,13.113925102510713,6.575961460221492,
2023-07-24 18:19:03.980,-0.62500025,0.89939025,-0.18292675,-0.10299675,-0.96611,0.1107175,13.165362050837956,6.4819403094996915,
2023-07-24 18:19:04.000,-1.41768275,0.77743925,0.0,-0.10391249999999999,-0.967438,0.10887125,13.05951892426269,6.43316038888392,
2023-07-24 18:19:04.020,-2.0884145,0.51829275,-0.19817075,-0.1041715,-0.97171025,0.10893225000000001,12.974535833223577,6.373203239970799,
2023-07-24 18:19:04.040,-2.4085365,0.304878,-0.487805,-0.1068875,-0.9724119999999999,0.111191,13.384978019215986,6.5310852779411235,
2023-07-24 18:19:04.060,-2.21036575,-0.06097575,-0.8993905,-0.10754375,-0.98062125,0.1120605,13.191638442947621,6.495602179677519,
2023-07-24 18:19:04.080,-1.67682925,-0.44207325,-1.737805,-0.1059265,-0.9815065,0.10990899999999999,13.080823828035783,6.362202898760117,
2023-07-24 18:19:04.100,-0.9451222499999999,-0.83841475,-2.515244,-0.10540775,-0.98120125,0.10714725,13.11574629677503,6.240067238101794,
2023-07-24 18:19:04.120,0.030488,-0.9451222499999999,-2.98780475,-0.10171474999999999,-0.9776915,0.1058655,12.7652100641346,6.138646371545022,
2023-07-24 18:19:04.140,0.5487806666666667,-0.670732,-3.2520326666666666,-0.10308833333333334,-0.9754636666666667,0.10552966666666667,13.062063639529518,6.119866711380411,
2023-07-24 18:19:04.160,0.8384145000000001,-0.41158525,-3.24695125,-0.1037445,-0.97906525,0.10284425,12.963854536013528,6.001106592072411,
2023-07-24 18:19:04.180,0.9908535,0.04573175,-3.8719512500000004,-0.100937,-0.985321,0.104477,12.76007792704349,6.12065862204102,
2023-07-24 18:19:04.200,1.1890242500000001,0.41158525,-5.213415,-0.10041825,-0.986984,0.10278325,12.77298093896244,5.983391270501386,
2023-07-24 18:19:04.220,2.027439,0.945122,-6.6615855,-0.09649625,-0.98521425,0.1064605,12.580256696578886,6.143177903184274,
2023-07-24 18:19:04.240,3.18597575,1.570122,-7.8353660000000005,-0.08740225,-0.9913175000000001,0.108536,11.899778183782288,6.2847748012304265,
2023-07-24 18:19:04.260,3.39939025,1.3719510000000001,-9.1310975,-0.081375,-0.99704,0.1076355,11.58966702225483,6.180448295722108,
2023-07-24 18:19:04.280,1.9359755,0.53353675,-10.228658750000001,-0.07321174999999999,-0.98020925,0.09983825,11.239414704531931,5.816928840709473,
2023-07-24 18:19:04.300,0.304878,-0.27439025,-11.006098,-0.06565825,-0.971695,0.0996855,10.737136366795433,5.86156526437788,
2023-07-24 18:19:04.320,-0.015244,-0.64024425,-10.33536625,-0.0656585,-0.9693295000000001,0.101593,10.727892757828386,5.974582020999158,
2023-07-24 18:19:04.340,0.91463425,-0.8536587499999999,-8.3841465,-0.0653995,-0.96577475,0.10906975,10.813761050610282,6.48923714716809,
2023-07-24 18:19:04.360,2.3323169999999998,-1.0365855000000002,-6.29573175,-0.06858825,-0.96731575,0.12142975,10.976907202639907,7.115583658052088,
2023-07-24 18:19:04.380,3.20121925,-1.5091462500000001,-4.9085365,-0.07098399999999999,-0.9766085,0.1309205,11.103874696204706,7.604231735647026,
2023-07-24 18:19:04.400,3.59756075,-2.6067074999999997,-5.945122250000001,-0.079605,-0.98214725,0.1420135,11.564415262081134,8.231058790651474,
2023-07-24 18:19:04.420,3.07926825,-3.5670729999999997,-6.7378047500000005,-0.08435075,-0.971939,0.14088425,11.8919274729191,8.18541709268684,
2023-07-24 18:19:04.440,1.722561,-3.1859755,-5.54878075,-0.08605975,-0.947342,0.1360625,12.208047029124621,8.14008253828002,
2023-07-24 18:19:04.460,0.0304875,-1.84451225,-3.30792675,-0.0874635,-0.94161975,0.14048775,12.170060072997629,8.576828931666896,
2023-07-24 18:19:04.480,-1.06707325,-1.143293,-1.28048775,-0.08717375,-0.9582215000000001,0.149109,12.15704207722775,8.78901090238221,
2023-07-24 18:19:04.500,-2.53048775,-1.0060975,-0.914634,-0.08625825,-0.96081525,0.14221175,11.982942512055255,8.414875150121404,
2023-07-24 18:19:04.520,-4.8018295,-0.50304875,-1.0060975,-0.08465575,-0.95513925,0.129883,12.017327270735208,7.739566282860096,
2023-07-24 18:19:04.540,-7.423781,0.25914625,-1.219512,-0.08296200000000001,-0.9519195,0.12440475000000001,11.872551984520278,7.283144358356857,
2023-07-24 18:19:04.560,-9.28353675,1.00609775,-1.41768275,-0.08338925,-0.95843525,0.12094099999999999,11.979292864526684,7.067827570219066,
2023-07-24 18:19:04.580,-9.756098,1.6158535,-1.387195,-0.083084,-0.96870425,0.11508175,11.879310189279558,6.713957256077428,
2023-07-24 18:19:04.600,-9.52743925,1.9664635000000001,-1.4939025,-0.08351125000000001,-0.97514325,0.10681125,11.7816466820531,6.183379386159601,
2023-07-24 18:19:04.620,-9.512195666666665,1.7886179999999998,-1.4227643333333333,-0.082601,-0.976949,0.10139966666666667,11.857325707960607,5.787351386755669,
2023-07-24 18:19:04.640,-9.923780749999999,1.43292675,-2.14939025,-0.07864375,-0.9852445,0.09355174999999999,11.530167669335057,5.353950708080177,
2023-07-24 18:19:04.660,-10.06097575,0.7317075,-3.8109755,-0.07629375,-0.9892427500000001,0.08898925,11.491091394181382,5.099244040447111,
2023-07-24 18:19:04.680,-9.5121955,0.121951,-4.923780750000001,-0.0681305,-0.99241625,0.08627325,10.930939569389928,4.92674569220717,
2023-07-24 18:19:04.700,-7.77439025,-0.929878,-6.082317,-0.06257625,-0.99632275,0.08607475,10.464528210143577,4.877735320245371,
2023-07-24 18:19:04.720,-5.152438999999999,-2.1036585,-7.62195125,-0.055664,-0.9951019999999999,0.08390800000000001,10.162177121358077,4.747509812641063,
2023-07-24 18:19:04.740,-3.09451225,-2.75914625,-8.10975625,-0.0511625,-0.9873655,0.0768585,9.852003070615638,4.373788776259076,
2023-07-24 18:19:04.760,-1.9512194999999999,-2.3018295,-6.875000249999999,-0.049362,-0.97309875,0.0744325,9.756410330005195,4.388585255201917,
2023-07-24 18:19:04.780,-1.63109725,-1.32621975,-5.320122,-0.04476925,-0.97560125,0.074295,9.567378964101543,4.279532832166225,
2023-07-24 18:19:04.800,-1.70731725,-0.56402475,-4.7713415,-0.041946250000000004,-0.98530575,0.07899500000000001,9.261140274564532,4.50728031687828,
2023-07-24 18:19:04.820,-2.66768275,-0.3963415,-6.112805,-0.04270925,-0.9794465,0.080597,9.387727085613648,4.669565257195131,
2023-07-24 18:19:04.840,-4.740854000000001,0.152439,-7.02743925,-0.04132075,-0.9709625,0.07824724999999999,9.407562375095381,4.605162414600393,
2023-07-24 18:19:04.860,-6.890244,1.05182925,-6.6463415,-0.04347225,-0.972229,0.078186,9.469269574573858,4.573911310850242,
2023-07-24 18:19:04.880,-7.91158525,2.07317075,-5.54878025,-0.042007249999999996,-0.9739075,0.0724335,9.316394136258083,4.254632036719443,
2023-07-24 18:19:04.900,-7.46951225,3.39939025,-5.68597575,-0.04444875,-0.9861297499999999,0.06457525,9.622265125557902,3.7431246199931962,
2023-07-24 18:19:04.920,-5.80792675,4.207317,-6.70731725,-0.0520175,-0.9983675000000001,0.06013475,9.943370323486128,3.4392650600923886,
2023-07-24 18:19:04.940,-3.88719525,3.97865875,-6.93597575,-0.05484025,-0.99388125,0.062316750000000004,10.1808004172983,3.5916458159596303,
2023-07-24 18:19:04.960,-2.40853675,2.48475625,-5.8993905,-0.055480749999999995,-0.985611,0.06658925,10.209715907902833,3.864578350385848,
2023-07-24 18:19:04.980,0.09146374999999995,0.80792675,-3.8414634999999997,-0.0549925,-0.990524,0.06248474999999999,10.195178269202238,3.701050290330379,
2023-07-24 18:19:05.000,1.9664635000000001,-0.030488,-1.6463415000000001,-0.0436095,-0.98429875,0.06332425,9.664327811561407,3.639397908905387,
2023-07-24 18:19:05.020,2.2256097500000003,-0.18292675,-1.49390225,-0.041519,-0.98857075,0.0574645,9.389404219786556,3.305425183285024,
2023-07-24 18:19:05.040,2.2865855,-0.0609755,-1.4634145,-0.0395355,-0.9829105,0.057907,9.307111621456983,3.392026113543139,
2023-07-24 18:19:05.060,1.7835364999999999,0.807927,-1.737805,-0.03601075,-0.9768675,0.0667265,9.177684839383751,4.002593100577393,
2023-07-24 18:19:05.080,1.692073,1.8750002499999998,-1.85975625,-0.03701775,-0.9831085,0.07997125,9.237570151006265,4.7181552644295905,
2023-07-24 18:19:05.100,1.707317,2.601626,-1.707317,-0.03910333333333333,-0.981262,0.08414700000000001,9.31130953080797,4.992238287541615,
2023-07-24 18:19:05.120,1.2957315,2.92682925,-1.29573175,-0.04103125,-0.9739227500000001,0.0879515,9.447933101189655,5.228825696649068,
2023-07-24 18:19:05.140,-0.18292675,2.53048775,-1.1585364999999999,-0.04232775,-0.9759065,0.09196475,9.519414054742363,5.3624426306221835,
2023-07-24 18:19:05.160,-1.219512,1.43292675,-1.06707325,-0.044861,-0.983124,0.09352099999999999,9.545887086222507,5.420901262717109,
2023-07-24 18:19:05.180,-1.6006097499999998,0.5487807499999999,-0.5487807499999999,-0.041794,-0.98052975,0.088913,9.479766601133463,5.086348435980234,
2023-07-24 18:19:05.200,-1.234756,0.04573175,-0.36585375,-0.0366365,-0.98229975,0.0835725,9.009241364825051,4.910909892873484,
2023-07-24 18:19:05.220,0.320122,0.01524425,-0.457317,-0.03717025,-0.9890749999999999,0.07882675,9.094031497675367,4.5575701036930525,
2023-07-24 18:19:05.240,1.905488,0.30487775,-0.41158525,-0.03796375,-0.9886625,0.07312025,9.235908786134047,4.209290490719397,
2023-07-24 18:19:05.260,2.652439,1.097561,0.10670750000000001,-0.036911,-0.9835510000000001,0.06631475,9.09555172109539,3.825963784104296,
2023-07-24 18:19:05.280,2.46951225,2.37804875,0.5487807499999999,-0.037613,-0.97665425,0.067398,9.04660267059166,4.037770180953366,
2023-07-24 18:19:05.300,2.07317075,3.429878,0.30487825,-0.04203775,-0.98233025,0.07225025,9.519639287039709,4.251659131612563,
2023-07-24 18:19:05.320,1.84451225,3.8719515,0.27439025,-0.044632,-0.9826355,0.0785065,9.58982340308566,4.484364332094522,
2023-07-24 18:19:05.340,1.25,3.62804875,0.13719525,-0.04895025,-0.9824525,0.08232125,9.875245294819372,4.743999368069147,
2023-07-24 18:19:05.360,0.65548775,2.7439025,-0.36585375,-0.04913325,-0.9820405,0.08265675,9.822227788780168,4.809523982059787,
2023-07-24 18:19:05.380,-0.12195125,1.737805,-0.8993905,-0.050979750000000004,-0.981827,0.0875705,10.059788006984675,5.028676070841001,
2023-07-24 18:19:05.400,-0.80792725,0.74695125,-0.7012195,-0.0502625,-0.980774,0.08712775,9.976008242865575,5.157152764275615,
2023-07-24 18:19:05.420,-0.92987825,-0.289634,-0.929878,-0.04774475,-0.98555,0.08696,9.871884279800021,4.988712031141368,
2023-07-24 18:19:05.440,-0.74695125,-0.68597575,-0.7317075,-0.04336525,-0.9808655,0.079361,9.501374137910972,4.621252077523479,
2023-07-24 18:19:05.460,-0.73170725,-0.45731725,-1.44817075,-0.0408935,-0.983841,0.07516475,9.32342576739557,4.3763191692657415,
2023-07-24 18:19:05.480,-0.97561,0.51829275,-1.38719525,-0.037201,-0.9737855,0.06884775,9.1468825509494,4.001835936583433,
2023-07-24 18:19:05.500,-1.25,2.07317075,-0.8689024999999999,-0.038955500000000004,-0.97756975,0.07574475,9.27488152532996,4.424857580930762,
2023-07-24 18:19:05.520,-0.609756,2.820122,0.0914635,-0.042633,-0.9852445,0.0828705,9.541105981282278,4.835889946187905,
2023-07-24 18:19:05.540,0.503049,2.317073,0.18292675,-0.047439499999999996,-0.98828125,0.088608,9.712187003597172,5.119383320984895,
2023-07-24 18:19:05.560,1.387195,1.26524375,0.152439,-0.05340575,-0.9838565,0.0902405,10.18356514921664,5.2357432139989655,
2023-07-24 18:19:05.580,1.6260163333333333,0.0,0.487805,-0.053405666666666664,-0.9849243333333333,0.08852166666666667,10.115953613779434,5.159785531954857,
2023-07-24 18:19:05.600,1.70731725,-1.1890242500000001,0.62500025,-0.0543975,-0.9848785,0.08326725,10.157385796829452,4.825025973501134,
2023-07-24 18:19:05.620,1.3109755,-2.08841475,0.8231707500000001,-0.05552675,-0.98677075,0.07377625,10.27437687961978,4.200589285589594,
2023-07-24 18:19:05.640,1.55487775,-2.1189025,1.3567075,-0.05534375,-0.984665,0.06562799999999999,10.186335512884355,3.8260259957934295,
2023-07-24 18:19:05.660,1.8902442499999998,-1.2957317499999998,2.30182925,-0.053711,-0.986099,0.06036375,10.135282902953001,3.5245527970983233,
2023-07-24 18:19:05.680,2.08841475,0.0762195,2.75914625,-0.05340575,-0.980362,0.06259175,10.022574816820295,3.642470388513118,
2023-07-24 18:19:05.700,2.4237805,1.280488,2.82012175,-0.059478500000000004,-0.98330675,0.07084675,10.42084882007537,4.176545273802461,
2023-07-24 18:19:05.720,2.9573169999999998,1.432927,2.8658535,-0.06427,-0.987976,0.08338925,10.743101552184385,4.935680803067939,
